Time (s),Acceleration x (m/s^2),Acceleration y (m/s^2),Acceleration z (m/s^2),Absolute acceleration (m/s^2)
0.002525625,-3.285966797,5.832471313,8.143665161,10.54203878
0.012558625,-3.409759369,6.148314514,8.002957764,10.65249094
0.022590625,-3.471281433,6.30204483,7.772137756,10.59111369
0.032623625,-3.433110809,6.443051605,7.534432068,10.49127401
0.042656625,-3.38970108,6.569538574,7.507488098,10.53618945
0.052689625,-3.348386993,6.652615814,7.544910278,10.60163496
0.062722625,-3.395239563,6.689139862,7.6640625,10.7242761
0.072755625,-3.544030151,6.802005157,7.765551453,10.91472461
0.082787625,-3.607198792,6.929989014,7.60209137,10.90084511
0.092820625,-3.595972137,7.021748199,7.332352295,10.7702996
0.102853625,-3.605552216,7.054679718,7.277416534,10.75775553
0.112886625,-3.691922607,7.110363922,7.432194672,10.9281785
0.122919625,-3.774101715,7.189549255,7.513475647,11.06281061
0.132952625,-3.776496735,7.205565948,7.482190704,11.05284063
0.142985625,-3.75718689,7.088958435,7.399113464,10.91405814
0.153017625,-3.719165955,6.966063995,7.368427277,10.80055385
0.163050625,-3.70329895,6.796167297,7.525301056,10.79502057
0.173083625,-3.203488312,5.655838623,8.830137634,10.96458748
0.183116625,-3.20842804,5.262905731,9.241781616,11.10867745
0.193149625,-3.769760742,5.673052826,8.895701294,11.2039335
0.203182625,-3.911216583,6.011049957,8.62117218,11.2140513
0.213214625,-3.833827515,6.283633118,8.335865479,11.12065339
0.223247625,-3.881727905,6.343508606,8.009993134,10.93013737
0.233280625,-3.89055954,6.114035797,7.544161835,10.46098777
0.243313625,-3.961661682,5.797893219,7.061116333,9.958398111
0.253346625,-4.068988495,5.506748657,6.705156555,9.583322627
0.263379625,-4.212839355,5.312003632,6.549180908,9.426408043
0.273411625,-4.411775665,5.125641174,6.312972107,9.251463603
0.283444625,-4.638554077,4.990023193,6.173162842,9.193718229
0.293477625,-4.87221817,4.891228638,5.96973587,9.126903848
0.303510625,-5.047204285,4.826712799,5.8246875,9.093866725
0.313543625,-5.225483551,4.777016144,5.600154419,9.027031134
0.323576625,-5.537285156,4.74348587,5.205275574,8.958631531
0.333608625,-6.656507721,4.684957581,2.935844879,8.65315594
0.343641625,-6.82864975,5.048102417,1.370699615,8.601895887
0.353674625,-5.890999603,4.997208252,1.678759003,7.905327218
0.363707625,-5.750292206,4.720284119,1.260678406,7.545611483
0.373740625,-4.369264069,4.310885468,1.331181793,6.280624729
0.383773625,-2.864892426,3.556753693,0.460891571,4.590264315
0.393805625,-1.967957611,2.851570129,0.270038452,3.475230946
0.403838625,-1.685944061,2.337688751,0.532143402,2.930933755
0.413871625,-1.788031769,1.755998383,0.684376831,2.597875973
0.423904625,-1.90718399,1.479673004,0.871038666,2.566221216
0.433937625,-1.815424805,1.386416931,1.321452026,2.63896847
0.443970625,-1.464404755,0.728235626,1.665137329,2.333986019
0.454003625,-0.964743805,0.146545258,2.218686218,2.423793444
0.464035625,-0.583786011,-0.048648834,2.705773315,2.768462037
0.474068625,-0.258362732,0.347427521,3.185974731,3.21525927
0.484101625,0.763861542,-0.079035645,2.832559662,2.934812656
0.494134625,1.306782532,-0.354462891,2.342628479,2.705777655
0.504167625,1.073118439,-0.368982697,3.120261383,3.320205191
0.514200625,0.987496491,-0.469274139,3.407364349,3.578477238
0.524232625,-0.572259979,-0.690514069,2.039808197,2.228252374
0.53426575,-0.387394409,-1.29645401,3.900139618,4.128190459
0.54429875,-0.051193542,-1.812880096,4.125421143,4.506468088
0.55433175,-0.068258057,-2.196831665,4.167184296,4.711279389
0.56436475,0.255818024,-2.90186554,4.626429291,5.46718524
0.57439775,0.590671692,-3.917204132,5.129982147,6.481519736
0.58442975,0.840502167,-4.855453033,5.691015472,7.527916389
0.59446275,1.120869141,-5.560337219,6.15699646,8.371517367
0.60449575,1.11982132,-6.285429382,6.765780487,9.302494714
0.61452875,0.642913055,-7.127727814,7.93440033,10.68515557
0.62456175,-0.031434631,-8.432564392,9.817634125,12.94198865
0.63459475,-0.630488892,-10.07075775,11.68530029,15.43903886
0.64462775,-1.015039215,-11.27455444,12.80347504,17.09019764
0.65465975,-1.558409271,-11.8072966,13.46779358,17.97838581
0.66469275,-1.975741425,-12.32432144,14.25545563,18.94757157
0.67472575,-2.177821198,-13.28726898,15.42093201,20.47192141
0.68475875,-2.651885376,-14.55139023,16.85524933,22.42487199
0.69479175,-3.37458252,-15.75339066,18.34150864,24.41245714
0.70482475,-4.033212891,-16.90300003,19.48243607,26.10638871
0.71485675,-4.499942322,-17.33694763,19.85082001,26.73713315
0.72488975,-5.08986557,-17.23201584,20.26830185,27.08603259
0.73492275,-6.042035522,-16.93278809,20.91151428,27.57747152
0.74495575,-7.115603027,-16.53371796,21.80919754,28.27784881
0.75498875,-7.776478729,-15.71177719,22.36783585,28.41924778
0.76502175,-8.142018585,-14.3844873,22.48115021,27.90354917
0.77505375,-8.435558167,-12.75123367,22.29838028,27.03646362
0.78508675,-8.657995605,-11.37499557,22.03103622,26.26248216
0.79511975,-8.80603775,-10.45860123,21.79722244,25.73028462
0.80515275,-9.07637558,-10.05429199,21.58661041,25.48433107
0.81518575,-9.319170685,-9.993817749,21.03620499,25.08476142
0.82521875,-9.420809326,-10.08198441,20.14435959,24.41706946
0.83525075,-9.269324341,-10.37432648,19.20281754,23.71276502
0.84528375,-9.218430176,-10.69600754,18.01264252,22.8875364
0.85531675,-9.098080444,-10.24319916,16.26861923,21.26890144
0.86534975,-8.940308533,-9.228159943,14.43538147,19.3253277
0.87538275,-8.802145844,-8.168513489,12.99058594,17.6906107
0.88541575,-8.755143585,-7.228917389,12.08856171,16.58442371
0.89544875,-8.660091248,-6.393953705,11.39250916,15.67383454
0.90548075,-8.466843109,-5.635780334,10.8889563,14.90029602
0.91551375,-8.21162384,-5.014572144,10.50111282,14.24254438
0.92554675,-7.833510132,-4.52703598,10.12240036,13.57648426
0.93557975,-7.421716461,-4.111799469,9.709259491,12.89412618
0.94561275,-7.05557785,-3.764072571,9.336384888,12.29298596
0.95564575,-6.792874146,-3.566782837,8.95587616,11.79291299
0.96567775,-6.554420013,-3.255579987,8.342302094,11.09744236
0.97571075,-6.331084442,-2.753074951,7.52949234,10.21544452
0.98574375,-6.147715759,-2.262844391,6.738237762,9.397804102
0.99577675,-5.979615326,-1.882485352,6.112838287,8.755931845
1.00580975,-5.783972168,-1.544039154,5.597160645,8.19552306
1.01584275,-5.639073486,-1.19930603,5.145250397,7.727294894
1.02587475,-5.519023132,-0.873583374,4.80321167,7.368419545
1.03590775,-5.38235733,-0.604742432,4.537065125,7.065440098
1.04594075,-5.203628998,-0.372874603,4.286336517,6.751997553
1.05597375,-5.050946503,-0.199984131,4.167184296,6.551143349
1.06600675,-4.891977081,-0.150886231,4.193379822,6.445047769
1.07603975,-4.57149353,-0.14624588,4.204307098,6.212579105
1.08607275,-4.262985077,-0.145198059,4.290527802,6.050020914
1.09610475,-3.989503784,-0.243693237,4.537813568,6.047088458
1.10613775,-3.622167664,-0.46687912,4.975353699,6.171889429
1.11617075,-3.25872345,-0.89633606,5.587580566,6.530218483
1.12620375,-3.155288544,-1.506167908,6.364315338,7.261466607
1.13623675,-3.445834351,-1.982776794,6.985224152,8.03732136
1.14626975,-3.859424286,-2.128872986,7.427105255,8.63650094
1.15630175,-4.060605927,-2.169139252,7.649842072,8.92825679
1.16633475,-4.395160217,-2.139800262,8.015531616,9.388552902
1.17636775,-4.907095642,-2.037413177,8.557853851,10.07310789
1.18640075,-5.418432312,-1.776805115,8.921298065,10.58801229
1.19643375,-5.92063797,-1.370998993,9.159153442,10.99198271
1.20646675,-6.419700165,-0.977467346,9.466464386,11.47963155
1.21649975,-6.923103333,-0.636027374,9.787696381,12.00553585
1.22653175,-7.283553772,-0.545914764,10.25442581,12.58973499
1.23656475,-7.436385956,-0.760119324,10.76636124,13.10695051
1.24659775,-7.408094788,-1.278191986,11.37828873,13.63741535
1.25663075,-7.1398526,-2.136507111,12.02269867,14.14522679
1.26666375,-6.905589752,-3.057990875,12.63193176,14.71747866
1.27669675,-6.736291809,-3.900289307,12.9685817,15.1252767
1.28672975,-6.456373901,-4.551135864,12.99612442,15.20844672
1.29676175,-6.097420349,-5.016518097,12.8955336,15.12080605
1.30679475,-5.73337738,-5.357658691,12.73072632,14.95484923
1.31682775,-5.522465973,-5.597759399,12.62699203,14.87526365
1.32686075,-5.363197174,-5.792654114,12.48763184,14.77361413
1.33689375,-5.293591919,-5.829477539,12.32551895,14.62611846
1.34692675,-5.316943359,-5.994584198,12.72384064,15.03665677
1.35695975,-5.31918869,-6.627468109,13.57347382,16.01425282
1.36699175,-5.144951019,-7.54700592,14.29003372,16.95974301
1.37702475,-4.762346649,-8.250393219,14.42744797,17.28873011
1.38705775,-4.267475739,-8.487051086,13.94619873,16.87417685
1.39709075,-3.855083313,-8.329279175,13.16452423,16.04815432
1.40712375,-3.592229919,-7.982001343,12.54196884,15.29435986
1.41715675,-3.484154663,-7.735613708,12.3089035,14.94952035
1.42718975,-3.495531006,-7.437433777,12.32312393,14.81193916
1.43722175,-3.789819031,-7.246131592,12.78506332,15.17652778
1.44725475,-4.166286163,-7.356601868,13.47363144,15.90648533
1.45728775,-4.324507141,-7.451205139,13.81641861,16.28235988
1.46732075,-4.346212006,-7.400460663,13.73349106,16.1946026
1.47735375,-4.348756714,-7.395520935,13.504617,15.99937797
1.48738675,-4.417014771,-7.502997437,13.25733124,15.86070054
1.49741975,-4.616549835,-7.621850281,12.95780411,15.72608729
1.50745175,-4.959037628,-7.624993744,12.49676285,15.45644414
1.51748475,-5.173541565,-7.47096405,11.81044006,14.90192372
1.52751825,-5.322930908,-7.256759491,11.06933121,14.26619238
1.53755125,-5.425617371,-7.038663025,10.46099625,13.72634487
1.54758425,-5.470374298,-6.79122757,9.925260315,13.21198544
1.55761725,-5.449866943,-6.521787872,9.424252167,12.69059871
1.56765025,-5.359904022,-6.214925995,8.958271179,12.14925919
1.57768225,-5.214556274,-5.910309448,8.561296692,11.63697366
1.58771525,-5.014572144,-5.620063019,8.258326721,11.17725379
1.59774825,-4.856650543,-5.365891571,8.087531891,10.85301889
1.60778125,-4.77042984,-5.079537048,8.037984924,10.63804019
1.61781425,-4.646038513,-4.822222137,7.980354767,10.41756029
1.62784725,-4.513713684,-4.659360809,7.89458313,10.21800847
1.63788025,-4.356091461,-4.483027496,7.832013245,10.02065366
1.64791225,-4.145778809,-4.387226715,7.871980133,9.919844323
1.65794525,-3.97707962,-4.412973175,7.936346283,9.913480059
1.66797825,-3.868555298,-4.521048431,7.989635468,9.961921196
1.67801125,-3.832630005,-4.577032013,7.828271027,9.844800763
1.68804425,-3.804189148,-4.633913727,7.948620758,9.956183177
1.69807725,-3.380869446,-5.28296402,8.572373657,10.62193848
1.70811025,-3.241209869,-5.659131775,8.823401642,10.97194743
1.71814325,-3.162473602,-5.856870575,8.993148651,11.18842683
1.72817525,-3.137774963,-5.888903961,8.919501801,11.13922502
1.73820825,-3.500321045,-5.365891571,8.566535797,10.69722279
1.74824125,-3.17325119,-5.601501617,8.211773529,10.43453727
1.75827425,-2.33544342,-6.412215729,8.097561035,10.589679
1.76830725,-1.917063446,-6.60860733,7.932604065,10.50119185
1.77834025,-1.837279358,-6.252497864,7.63367569,10.03704785
1.78837325,-1.863624573,-5.839207306,7.061715088,9.350789191
1.79840525,-1.853745117,-5.482798462,6.511459351,8.711862763
1.80843825,-1.751807098,-5.309159546,6.115682373,8.285986609
1.81847125,-1.695673828,-5.209766235,5.91015976,8.058967821
1.82850425,-1.75629776,-5.14135849,5.926176453,8.039758472
1.83853725,-1.772314453,-5.146896973,6.218668213,8.264592023
1.84857025,-1.582359467,-5.154680786,6.395300903,8.365074365
1.85860325,-1.250200195,-5.166655884,6.538852386,8.426975975
1.86863625,-0.816252594,-5.059179382,6.569688263,8.332008653
1.87866825,-0.47391449,-4.830305328,6.470294952,8.088334889
1.88870125,-0.225131836,-4.542004852,6.442752228,7.886035042
1.89873425,-0.127983856,-4.314328308,6.478976898,7.785046581
1.90876725,-0.485739899,-4.766687622,6.499334564,8.074565246
1.91880025,-0.212408295,-5.300627289,7.173682251,8.922078456
1.92883325,0.733025665,-5.397475891,8.062084808,9.729711408
1.93886625,1.345701599,-5.752387848,8.302335205,10.18968344
1.94889825,1.790875854,-6.02826416,8.540190582,10.605756
1.95893125,1.943857727,-6.114933929,8.400830383,10.57094844
1.96896425,1.870360565,-5.81181427,8.29006073,10.2956564
1.97899725,1.632355499,-5.359604645,8.673712921,10.3258531
1.98903025,1.22160965,-5.001698914,9.462422791,10.77250051
1.99906325,0.974323883,-4.82656311,10.77189972,11.84393693
2.00909625,1.00980011,-4.904550934,12.24798019,13.23205709
2.01912825,1.250948639,-5.24434433,13.5817067,14.61269232
2.02916125,1.321452026,-5.970634003,14.80421448,16.01747396
2.03919425,0.984353027,-6.809639282,15.83452194,17.26476826
2.04922725,0.354462891,-7.435188446,16.45498169,18.06029052
2.05926025,-0.553997955,-7.844736786,16.7188829,18.47614285
2.06929325,-1.559157715,-8.053552551,16.8091452,18.70395797
2.07932625,-2.466421051,-7.984995117,16.4787822,18.47684071
2.08935925,-3.277883606,-7.830815735,15.96534988,18.08199638
2.09939125,-4.167333984,-7.76585083,15.5165831,17.84487217
2.10942425,-4.993166656,-7.743098145,15.09835281,17.68749671
2.11945725,-5.852978668,-7.775430908,14.3978096,17.37848113
2.12949025,-6.409820709,-7.645201721,13.7794455,17.01199662
2.13952325,-6.879244537,-7.549700317,13.19161789,16.68354767
2.14955625,-7.255112915,-7.445816345,12.83431091,16.5165487
2.15958925,-7.572003937,-7.288942566,12.72683441,16.50564272
2.16962125,-7.961344299,-7.08835968,13.05165894,16.85151765
2.17965425,-8.395441589,-6.806196442,13.48830093,17.28415493
2.18968725,-8.797056427,-6.42733429,13.93721741,17.69024751
2.19972025,-9.078471222,-6.124813385,14.34227509,18.04529948
2.20975325,-9.328002319,-5.940696259,14.62368988,18.33455222
2.21978625,-9.540709991,-5.811664581,14.73341171,18.4898354
2.22981925,-9.77961319,-5.648952942,14.63491653,18.48600242
2.23985225,-10.04785538,-5.330265656,14.17133057,18.17134391
2.24988425,-10.29798523,-4.824617157,13.39729019,17.57307073
2.25991725,-10.40935364,-4.17721344,12.58028915,16.85430006
2.26995025,-10.47701294,-3.514840851,11.6998201,16.09371606
2.27998325,-10.45336212,-2.758314056,10.88910599,15.34450082
2.29001625,-10.38570282,-2.10028244,10.15982254,14.67978213
2.30004925,-10.20712418,-1.612895966,9.567204895,14.08255044
2.31008225,-9.929002533,-1.219813385,9.027726746,13.47489837
2.32011425,-9.517957306,-0.890947266,8.554261322,12.82812087
2.33014725,-9.027127991,-0.490080872,8.15668808,12.17623831
2.34018025,-8.399183807,-0.035625916,7.86644165,11.5077566
2.35021325,-7.660769348,0.426912231,7.544610901,10.76061312
2.36024625,-6.964716797,0.82613205,7.39611969,10.19276021
2.37027925,-6.611152039,1.66034729,6.893614655,9.694638075
2.38031225,-6.241720276,3.601211243,5.686075745,9.179283839
2.39034425,-5.361400909,2.348466339,7.065606995,9.175113954
2.40037725,-5.210963745,0.031284943,8.635991364,10.08640019
2.41041025,-5.683830414,-0.491877136,10.23855881,11.72074903
2.42044325,-5.943839722,-0.514480133,10.97682358,12.4933813
2.43047625,-5.966742096,-0.713865509,10.96709381,12.50554924
2.44050925,-6.179749146,-0.86115921,10.91440338,12.57199649
2.45054225,-6.601871338,-1.037642212,10.7389682,12.64859061
2.46057525,-7.013964386,-1.235979767,10.50919601,12.69513857
2.47060725,-7.224277039,-1.225651245,10.3421434,12.67487001
2.48064025,-7.221283264,-0.526006165,9.451345825,11.90594609
2.49067325,-7.289391632,0.120649109,8.671317902,11.32879255
2.50070625,-7.691754913,0.163609772,8.660540314,11.5842488
2.51073925,-8.351732483,0.109272766,8.938063202,12.23324772
2.52077225,-8.981772308,-0.162861328,9.588011627,13.13882508
2.53080525,-9.452243958,-0.598455505,10.56128769,14.18604464
2.54083825,-9.758956146,-0.942140808,11.36960678,15.01308805
2.55087025,-10.18931122,-1.149160309,12.19813385,15.93540404
2.56090325,-10.73013657,-1.402583313,13.4462384,17.25990724
2.57093625,-11.18653748,-1.658101959,14.37430847,18.28957809
2.58096925,-11.44415176,-2.139800262,15.14505569,19.10288111
2.59100225,-11.76897629,-2.916235657,15.70908279,19.84410531
2.60103525,-11.89546326,-3.957171021,16.11698456,20.41858075
2.61106825,-11.85399948,-5.15542923,16.57488235,21.01957372
2.62110025,-11.67018173,-6.38512207,16.6989743,21.34991027
2.63113325,-11.3335318,-7.473957825,16.54973465,21.40566994
2.64116625,-10.91185867,-8.389903107,16.11174545,21.19074032
2.65119925,-10.56832306,-9.159602509,15.50026703,20.87692622
2.66123225,-10.4509671,-9.730215912,15.00449799,20.71315463
2.67126525,-10.51503387,-10.04037094,14.6048291,20.60766894
2.68129825,-10.53868469,-10.02704865,14.19617889,20.32577366
2.69133025,-10.52236862,-9.834249573,13.87105499,19.99597141
2.70136325,-10.46922913,-9.65671875,13.9758371,19.95447313
2.71139625,-10.52775742,-9.382489014,14.01760025,19.88360865
2.72142925,-10.45845154,-8.787626038,13.84201538,19.44744121
2.73146225,-10.17209702,-8.02331543,13.59143646,18.77690851
2.74149525,-9.734107819,-7.404651947,13.38381821,18.13031481
2.75152825,-9.266480255,-7.013665009,13.16377579,17.55973081
2.76156125,-8.749754791,-6.838678894,12.99253189,17.09185838
2.77159325,-8.170010376,-6.911128235,12.78745834,16.67428721
2.78162625,-7.63711853,-7.141199799,12.49676285,16.2939067
2.79165925,-7.261250153,-7.385342102,12.11326035,15.93738084
2.80169225,-6.863826599,-7.584877167,11.67676804,15.52383293
2.81172525,-6.502478027,-7.819589081,11.30179779,15.20390829
2.82175825,-6.195915527,-7.99517395,10.94658646,14.90435945
2.83179125,-5.926775208,-8.094118195,10.56353302,14.56810364
2.84182325,-5.669909363,-8.109985199,10.20907013,14.21776512
2.85185625,-5.439089355,-8.020321655,9.870025177,13.83208768
2.86188925,-5.256618805,-7.878716125,9.632768555,13.50912429
2.87192225,-5.140011292,-7.727081451,9.434281311,13.23378886
2.88195525,-5.046755219,-7.609725494,9.315578156,13.04444927
2.89198825,-4.904700623,-7.432194672,9.120384064,12.74656861
2.90202125,-4.766687622,-7.192093964,8.993747406,12.46334702
2.91205325,-4.648882599,-7.051087189,8.957223358,12.31104343
2.92208625,-4.550237732,-7.014263763,8.934620361,12.23650279
2.93211925,-4.469854889,-7.050338745,8.964707794,12.24960673
2.94215225,-4.354444885,-7.124284973,8.914262695,12.21395538
2.95218525,-4.170327759,-7.125033417,8.681347046,11.98013027
2.96221825,-3.974534912,-7.095844116,8.28542038,11.61017323
2.97225125,-3.777843933,-6.943011932,7.647447052,10.99822558
2.98228325,-3.608845367,-6.595883789,6.902895355,10.20683164
2.99231625,-3.495830383,-6.100414124,6.162235565,9.349279636
3.00234925,-3.386856995,-5.645061035,5.481600952,8.566531585
3.01238225,-3.294798431,-5.15423172,4.836891632,7.798546146
3.02241525,-3.136727142,-4.54694458,4.318220215,7.011475451
3.03244825,-2.943479004,-3.970493317,3.813469849,6.242710798
3.04248125,-2.820135498,-3.503464508,3.406017151,5.641664703
3.05251425,-2.518961792,-3.266357574,3.152444458,5.19154759
3.06254625,-2.217039642,-3.193758545,3.053200836,4.943419238
3.07257925,-2.102527771,-3.184627533,3.139122162,4.941311921
3.08261225,-2.103276215,-3.410208435,3.691772919,5.448162965
3.09264525,-2.180066528,-4.156406708,4.924010468,6.802520553
3.10267825,-2.07812851,-5.341192932,5.864355011,8.199854861
3.11271125,-1.835932159,-6.185587006,5.823789368,8.691872991
3.12274425,-1.472038879,-6.069578247,5.275479584,8.175412124
3.13277625,-0.940643921,-5.428910522,4.283193054,6.978798119
3.14280925,-0.797391815,-4.808750153,3.120261383,5.787567955
3.15284225,-0.743503876,-4.980892181,3.303031311,6.022632379
3.16287525,-0.782572632,-5.882617035,3.278931427,6.780043835
3.17290825,-1.234632568,-7.048991547,3.899690552,8.149858023
3.18294125,-1.871109009,-7.960595856,5.451513519,9.828078904
3.19297425,-2.514620819,-7.917635193,6.512507172,10.55580478
3.20300625,-2.794838104,-7.439080353,8.065677338,11.32281712
3.21303925,-2.623444519,-6.547384644,9.632918243,11.93917169
3.22307225,-2.100731506,-5.331163788,11.47079636,12.82238469
3.23310525,-1.403930511,-4.230502625,13.35043762,14.07488394
3.24313825,-0.954415283,-3.387605438,15.29384628,15.69358191
3.25317125,-0.943338318,-3.020119629,16.66694092,16.96460814
3.26320425,-1.335971832,-3.269650726,17.23590775,17.59408856
3.27323625,-2.117496643,-4.029470673,16.96676743,17.56677611
3.28326925,-3.040177917,-5.057832184,15.84904175,16.91202154
3.29330225,-3.805835724,-5.884862366,14.07747574,15.72549884
3.30333525,-4.304149475,-6.232439575,12.51233047,14.62625788
3.31336825,-4.653822327,-6.185587006,11.34401001,13.73339404
3.32340125,-5.032983856,-6.0622435,10.65304688,13.2502502
3.33343425,-5.495821381,-6.173312531,10.88730972,13.66921187
3.34346625,-6.067183228,-6.425837402,11.79681839,14.73998042
3.35349925,-6.552773438,-6.492897949,12.73416916,15.72436414
3.36353225,-7.067403259,-6.206543427,13.66897522,16.59247582
3.37356525,-7.507937164,-5.736221466,14.43972244,17.25627252
3.38359825,-7.951165466,-5.378016357,14.72278381,17.57567795
3.39363125,-8.120613098,-5.031486969,14.9220195,17.71798194
3.40366425,-8.224048004,-4.792434082,14.99282227,17.75914158
3.41369625,-8.377179565,-4.734654236,15.16795807,17.96276817
3.42372925,-8.572972412,-4.757855988,15.21915161,18.10402235
3.43376225,-8.879684601,-4.726870422,15.16421585,18.1974049
3.44379525,-9.349108429,-4.575834503,15.19654861,18.41953256
3.45382825,-9.782457275,-4.340523834,15.17723877,18.57108489
3.46386125,-9.976603546,-3.940555573,14.89821899,18.35803709
3.47389425,-10.0183667,-3.318449249,14.41547287,17.86576712
3.48392625,-9.614506531,-2.422562256,13.54473358,16.78592719
3.49395925,-9.090745697,-1.504820709,12.58028915,15.59390323
3.50399225,-8.602910156,-0.705632629,11.82106796,14.63713183
3.51402525,-8.073760529,0.008981323,11.37319931,13.94759306
3.52405825,-7.490423584,0.610131226,11.37484589,13.6332617
3.534091042,-7.009473724,1.106349335,11.72915909,13.70875281
3.544124042,-6.675667877,1.848805389,12.29183899,14.10928519
3.554156042,-6.291716309,2.801574097,12.70018982,14.44746805
3.564189042,-5.874234467,3.576063538,13.25284058,14.93092912
3.574222042,-5.051844635,4.011508026,13.78663055,15.22118632
3.584255042,-3.977378998,4.121678925,14.48747314,15.57866037
3.594288042,-2.471959534,3.981420593,14.94911316,15.66646987
3.604321042,-0.857416992,3.66587677,15.2657048,15.72309001
3.614354042,0.29608429,3.763773193,15.3240834,15.78230613
3.624386042,0.639021149,4.368365936,15.46179703,16.07974304
3.634419042,0.448018341,4.869972839,15.8244928,16.56296858
3.644452042,0.153880005,4.833748169,16.21907227,16.92474832
3.654485042,-0.104033661,4.267625427,16.59314438,17.1334728
3.664518042,-0.456849976,3.268602905,16.94087128,17.25936257
3.674551042,-1.098565521,2.435435486,16.6525708,16.86553606
3.684584042,-1.815275116,2.374362488,15.34743484,15.63574678
3.694616042,-2.734363861,2.870430908,13.90054367,14.45479968
3.704649042,-3.825594635,3.101550293,13.28592178,14.16935094
3.714682042,-5.169949036,2.838547211,13.9333255,15.13021093
3.724715042,-6.502627716,1.73174881,15.69186859,17.07389414
3.734748042,-8.027057648,-0.273331604,17.99647614,19.70739754
3.744781042,-10.26894562,-2.953208771,20.72634933,23.31853861
3.754813042,-12.60304184,-5.473068695,22.20736954,26.11433335
3.764846042,-14.1324115,-6.523135071,21.25250519,26.34284196
3.774879042,-14.80092133,-5.839207306,18.49389175,24.39646791
3.784912042,-15.13098495,-4.884043579,15.8881105,22.47738069
3.794945042,-14.9446225,-4.376449127,13.9226976,20.88867054
3.804978042,-14.52624252,-4.090393982,12.72473877,19.7398587
3.815011042,-14.32116898,-3.813918915,12.31444199,19.26881781
3.825043042,-14.35739365,-3.586092682,12.54945328,19.40318506
3.835076042,-14.52684128,-3.422033844,13.32798431,20.00936278
3.845109042,-14.71320374,-3.612138519,14.08076889,20.68318064
3.855142042,-14.54555237,-3.74655899,14.19064041,20.66359294
3.865175042,-13.68080063,-3.303779755,13.75609406,19.68017759
3.875208042,-12.3726709,-2.75082962,13.24505676,18.33252785
3.885241042,-11.44310394,-2.347119141,13.09851151,17.55062961
3.895273042,-10.91859467,-2.106868744,13.2432605,17.29273125
3.905306042,-10.41339523,-2.070494385,13.43067078,17.12041661
3.915339042,-9.993518372,-2.240989838,13.53006409,16.9692392
3.925372042,-9.626631317,-2.66191452,13.55625961,16.83834891
3.935405042,-9.16993103,-3.250340881,13.36899902,16.53428214
3.945438042,-8.791667633,-3.861669617,13.02456528,16.18163195
3.955470042,-8.57207428,-4.565955048,12.6022934,15.91056887
3.965503042,-8.584199066,-5.030888214,12.04964264,15.62665023
3.975536042,-8.642877045,-5.340145111,11.44714554,15.30534594
3.985569042,-8.622818756,-5.615871735,10.80572937,14.92162209
3.995602042,-8.683143311,-5.920787659,10.47297134,14.8369752
4.005635042,-8.793912964,-6.309828644,10.47042664,15.0591061
4.015668042,-8.948092346,-6.623576202,10.6792424,15.42680578
4.025700042,-9.077124023,-6.760990448,11.01244949,15.79174519
4.035733042,-8.937314758,-6.700216827,11.16573074,15.79373432
4.045766042,-8.511600037,-6.716383209,11.11094467,15.52450418
4.055799042,-7.966882782,-6.612050171,10.82878143,14.98175344
4.065832042,-7.439080353,-6.361171875,10.56158707,14.39970644
4.075865042,-6.941515045,-6.169270935,10.27298721,13.84842234
4.085898042,-6.487060089,-6.070027313,10.03887405,13.40545309
4.095930042,-6.070027313,-6.073320465,9.880952454,13.09059489
4.105963042,-5.733227692,-6.187832336,9.684860229,12.84350756
4.115996042,-5.449717255,-6.223757629,9.341623993,12.47800128
4.126029042,-5.162314911,-6.099815369,8.812174988,11.8958678
4.136062042,-4.850513306,-5.847889252,8.149053955,11.14147066
4.146095042,-4.67911972,-5.428611145,7.60089386,10.44689273
4.156127042,-4.485272827,-4.68390976,7.2287677,9.71142448
4.166160042,-4.081412659,-3.972888336,6.868167572,8.922639566
4.176193042,-3.602857819,-3.508104858,6.733447723,8.403969443
4.186226042,-3.156635742,-3.256777496,6.82745224,8.196648886
4.196259042,-2.681523743,-3.076701965,6.833140411,7.959175362
4.206292042,-2.144590302,-2.924917603,6.697821808,7.616772775
4.216325042,-1.637295227,-2.891537018,6.556066589,7.350083749
4.226357042,-1.127006378,-2.946173401,6.351142731,7.091339441
4.236390042,-0.476459198,-2.901416473,5.971232758,6.655888488
4.246423042,0.175135803,-2.805765381,5.784421234,6.431370067
4.256456042,0.690813446,-2.789898376,5.79070816,6.464754997
4.266489042,1.098415833,-2.785108337,5.562133484,6.316698084
4.276522042,1.202299805,-2.833757172,5.400319977,6.216040571
4.286554042,1.096619568,-2.771037598,5.503605194,6.258665511
4.296587042,0.914897461,-2.398312683,5.747148743,6.29433553
4.306620042,0.68332901,-2.070195007,6.561455383,6.914140775
4.316653042,0.486488342,-1.878294067,7.590565338,7.834624539
4.326686042,0.682730255,-1.726958771,8.264763336,8.470821696
4.336719042,1.262175293,-1.6708255,8.881630554,9.125135924
4.346752042,1.964963837,-1.59134079,9.439969482,9.772741285
4.356784042,2.422562256,-1.376387787,10.08692413,10.46466864
4.366817042,2.429597626,-1.173260193,11.1251651,11.44765402
4.376850042,2.104473724,-1.534309387,12.35919891,12.63062598
4.386883042,1.979932709,-2.059567108,12.15023346,12.48159138
4.396916042,1.977388,-1.876647491,11.10810059,11.43773438
4.406949042,1.892664185,-1.248403931,10.16910324,10.41879795
4.416981042,1.991907806,-0.695154419,9.385632477,9.619825017
4.427014042,2.303559723,-0.113613739,8.768316193,9.066568498
4.437047042,2.813848572,0.400267639,8.201744385,8.680240142
4.447080042,3.436254272,0.803678742,8.002808075,8.746352384
4.457113042,3.889062653,0.869691467,8.733438721,9.599693925
4.467146042,4.149670715,0.422571259,9.435778198,10.3166004
4.477179042,4.269721069,-0.165705414,9.534872131,10.44852922
4.487211042,3.99354538,-0.429007874,9.880952454,10.66609928
4.497244042,3.477568359,-0.377814331,10.16012192,10.74543172
4.507277042,3.056943054,0.172591095,9.832453308,10.29814675
4.517310042,2.77073822,1.068777466,9.265582123,9.729865756
4.527343042,2.630779266,1.728904724,8.92069931,9.459861906
4.537376875,2.53318222,1.877545624,8.919651489,9.46056935
4.547408875,2.322121124,1.457668762,8.971743164,9.381322942
4.557441875,2.068997498,0.681981812,8.742120667,9.009468552
4.567474875,1.590442657,0.023052063,8.665779419,8.810548915
4.577507875,0.87522995,-0.173788605,8.721313934,8.766843599
4.587540875,0.376916199,0.328117676,8.523425446,8.53806233
4.597573875,0.266894989,1.318757629,8.413853302,8.520755953
4.607606875,0.541573792,2.230661316,8.498128052,8.802688934
4.617638875,0.928219757,2.672841797,9.025032349,9.458164943
4.627671875,1.432521057,2.799478455,9.609267426,10.11074758
4.637704875,1.682650909,2.725382538,10.12898666,10.62334198
4.647737875,1.661095734,2.3834935,10.55709641,10.94954633
4.657770875,1.688039703,3.343746643,11.40598114,12.00527074
4.667803875,1.939816132,3.936663666,11.2857811,12.10904878
4.677835875,2.259700928,4.147724762,11.63320862,12.55553311
4.687868875,2.098785553,3.999233551,12.32387238,13.12541809
4.697901875,1.361718292,3.419489136,13.30074097,13.80061205
4.707934875,0.240100708,2.652184753,14.21878189,14.46601157
4.717967875,-0.905317383,1.817370758,15.10972916,15.24553545
4.728000875,-1.803300018,0.858464813,15.78931595,15.91512962
4.738032875,-2.317181396,0.526006165,15.36240372,15.54507832
4.748065875,-2.563269653,1.228794708,14.22911041,14.51026777
4.758098875,-2.64440094,1.969903564,13.32484085,13.72678987
4.768131875,-2.596949615,1.981878662,12.96349228,13.36877415
4.778164875,-2.703228607,1.353036346,13.38277039,13.71993788
4.788197875,-2.893333282,0.599802704,13.93587021,14.24568774
4.798229875,-2.937192078,0.001796265,14.43852493,14.73424931
4.808262875,-2.771336975,-0.436043243,14.72487946,14.98974707
4.818295875,-2.605332184,-0.337398377,14.62713272,14.86117778
4.828328875,-2.550097046,-0.060025177,14.45394287,14.67729752
4.838361875,-2.451452179,0.116308136,14.2545575,14.46428549
4.848394875,-2.257754974,0.289947052,13.92554169,14.11035925
4.858427875,-1.908082123,0.326171722,13.51404739,13.65198309
4.868459875,-1.32339798,0.262703705,12.59944931,12.67148446
4.878492875,-0.59201889,0.10298584,11.1543544,11.17052884
4.888525875,-0.212707672,-0.007334747,9.595496063,9.59785617
4.898558875,-0.328117676,-0.085771637,8.203989716,8.210996604
4.908591875,-0.694705353,-0.136067047,6.917714539,6.953840968
4.918624875,-1.232237549,-0.241747284,5.832321625,5.965972399
4.928656875,-1.573677521,-0.51133667,4.979694672,5.24740747
4.938689875,-1.689686279,-1.025218048,4.882546692,5.267387775
4.948722875,-1.161734161,-1.940414886,5.392087097,5.84717363
4.958755875,-0.037871246,-3.303929443,6.034850464,6.880174716
4.968788875,1.52577713,-4.509223022,6.089786224,7.729591475
4.978821875,2.821931763,-5.063370667,5.062023468,7.695784753
4.988853875,2.992127838,-5.036277008,3.66587677,6.910540326
4.998886875,2.496059418,-4.928950195,1.981130219,5.869390052
5.008919875,2.082020416,-5.454357605,0.785416718,5.890815335
5.018952875,1.216819611,-6.498735809,1.298549652,6.737985477
5.028985875,0.028740234,-7.965086517,2.907104645,8.479073454
5.039018875,-0.549656982,-9.236991577,4.834346924,10.44006927
5.049050875,-0.164058838,-10.36280045,5.860463104,11.90628305
5.059083875,-0.007933502,-11.43906235,6.934928741,13.37704926
5.069116875,-0.526305542,-12.51382736,8.528514862,15.15283599
5.079149875,-1.153052216,-12.9539122,10.29529083,16.58693414
5.089182875,-1.900148621,-12.55798553,12.03033279,17.49406964
5.099215875,-2.867586823,-11.44804367,13.86342087,18.20646029
5.109248875,-3.140319672,-10.32717453,15.71072937,19.06145741
5.119280875,-3.291654968,-9.244326324,17.34054016,19.92452997
5.129313875,-3.263214111,-8.187374268,18.80210083,20.76537164
5.139346875,-2.031575317,-7.594606934,19.80815872,21.31122954
5.149379875,-0.106877747,-7.272776184,20.43071411,21.68683415
5.159412875,1.452429657,-6.860533447,20.7414679,21.89486153
5.169444875,2.043400726,-6.262676697,20.87992996,21.89447604
5.179477875,1.410816193,-5.760770416,21.20026382,22.01426956
5.189510875,-0.116008759,-5.427263947,21.29651367,21.97749182
5.199543875,-1.900148621,-4.825664978,20.78637451,21.42360783
5.209576875,-3.745062103,-4.324058075,20.0539476,20.85386733
5.219609875,-5.498515778,-4.042044525,19.02004761,20.20727618
5.229642875,-6.625671844,-3.56169342,17.92866714,19.4427954
5.239674875,-7.069947968,-2.630180511,17.15522552,18.7404316
5.249707875,-7.628885651,-1.338815918,17.40745102,19.05286528
5.259740875,-8.268505554,-0.329464874,18.79356857,20.53472549
5.269773875,-8.631500702,0.558488617,20.08298721,21.86643751
5.279806875,-8.683292999,1.900747375,20.83801712,22.65469875
5.289839875,-8.246201935,3.537743225,20.97124008,22.81026927
5.299871875,-7.016060028,4.676425323,20.35347473,22.03084169
5.309904875,-5.3694841,4.843627625,19.56461517,20.85824189
5.319937875,-3.856879578,4.063150635,18.7095932,19.5303249
5.329970875,-2.957849121,2.98718811,17.86744446,18.355319
5.340003875,-2.978506165,2.315684509,16.47369278,16.90019075
5.350036875,-3.227288818,2.586172028,14.6525798,15.22503773
5.360068875,-3.452270966,3.392844543,13.21481964,14.07341561
5.370101875,-3.7278479,4.387526093,12.51951553,13.77989493
5.380134875,-3.735032959,5.156477051,12.37506592,13.91696746
5.390167875,-3.755839691,5.714366913,12.49766098,14.24611705
5.400200875,-4.574487305,6.003116455,13.56404343,15.5224552
5.410233875,-5.549260254,5.542224884,14.41981384,16.41467567
5.420265875,-6.321055298,5.410648499,14.68805603,16.88104994
5.430298875,-6.780449982,6.032006378,14.04678955,16.72339378
5.440331875,-6.836732941,6.712640991,12.89523422,16.06510293
5.450364875,-7.135811005,7.223977661,11.78095139,15.55302117
5.460397875,-7.919880524,7.753875732,10.95287338,15.58244306
5.470430875,-8.479416962,7.753875732,10.38630157,15.48865266
5.480462875,-8.975335693,7.13865509,9.964628448,15.19246087
5.490495875,-10.47371979,6.605463867,10.36324951,16.14707093
5.500528875,-12.12269073,6.269412689,9.964778137,16.89857892
5.510561875,-13.43126953,6.370153198,8.753646698,17.25120818
5.520594875,-14.46516953,6.40742569,7.885901184,17.67720767
5.530627542,-15.15044449,6.190377045,7.423662415,17.97129655
5.540659542,-15.60205536,5.770051117,6.666237488,17.92083546
5.550692542,-15.88257202,5.478457489,6.015839996,17.84544539
5.560725542,-16.10665604,5.243595886,5.819598083,17.91053847
5.570758542,-16.50497772,5.063520355,4.975653076,17.96693217
5.580791542,-16.67038376,4.791685638,3.638034668,17.72278878
5.590824542,-16.31457367,3.936513977,2.768792267,17.00963453
5.600856542,-15.20837402,2.831960907,1.957329712,15.59313255
5.610889542,-13.61808105,1.95283905,0.769400024,13.7788856
5.620922542,-12.07987976,1.15604599,-0.179327087,12.13639549
5.630955542,-11.23458755,0.869092712,-0.81909668,11.29788472
5.640988542,-11.54788605,1.006656647,-1.143023071,11.64789816
5.651021542,-12.59810211,0.931812286,-1.16427887,12.68605519
5.661053542,-14.10891037,0.362097015,-0.926423492,14.14392896
5.671086542,-15.37782166,-0.29952713,-0.954265595,15.41031272
5.681119542,-15.8444014,-0.783620453,-1.34794693,15.92093206
5.691152542,-15.36165527,-1.353934479,-1.398990784,15.48453314
5.701185542,-14.66964432,-2.294728088,-0.777183838,14.86836427
5.711218542,-14.23494827,-3.685036926,0.846040649,14.72851093
5.721250542,-13.88258102,-5.760021973,2.918331299,15.31079902
5.731283542,-13.37768097,-7.616012421,4.539310455,16.04902903
5.741316542,-12.58687546,-8.8412146,5.775439911,16.43022263
5.751349542,-11.36391861,-9.823022919,6.432723083,16.34045139
5.761382542,-10.1298848,-10.89793762,7.084467773,16.47935964
5.771415542,-9.723479919,-12.54451355,8.619076538,18.06099007
5.781447542,-11.13743958,-15.47287399,12.12194229,22.59189843
5.791480542,-13.22484879,-18.99175644,16.19108047,28.24419454
5.801513542,-15.53230042,-20.31739975,18.40452759,31.50834373
5.811546542,-16.86273376,-16.43701904,16.14228195,28.54996763
5.821579542,-16.78519501,-10.26505371,12.44856308,23.28262919
5.831612542,-15.9425972,-6.650520172,10.85288132,20.40051119
5.841644542,-14.93159958,-7.83485733,13.45462097,21.5723082
5.851677542,-13.38815918,-14.54345673,18.68908585,27.20361868
5.861710542,-10.19140686,-24.85446487,22.97197952,35.34573583
5.871743542,-5.508993988,-32.79679871,22.32382736,40.05411699
5.881776542,-1.611548767,-31.56351334,16.90285034,35.84074236
5.891809542,-0.875978394,-23.19845856,10.31220566,25.40231098
5.901841542,-2.564766541,-16.24766281,7.512577515,18.0832352
5.911874542,-4.399950256,-12.64166153,8.640631714,15.93209606
5.921907542,-5.050198059,-12.51846771,10.91036179,17.3566278
5.931940542,-6.752907257,-15.46718582,15.10987885,22.65268268
5.941973542,-8.589887238,-18.73429184,20.6419249,29.16931465
5.952006542,-8.842262421,-19.37735458,24.56406876,32.51247375
5.962038542,-7.033124542,-15.681091,25.25548096,30.54833505
5.972071542,-1.616638184,-8.299790497,24.15631668,25.59350849
5.982104542,0.019160156,-2.715503082,22.12698669,22.29300034
5.992137542,1.377734985,-0.97237793,24.62080078,24.6784826
6.002170542,2.076032867,-2.036215668,28.33173386,28.48057636
6.012203542,3.394940186,-4.32585434,29.89792694,30.39941891
6.022235542,4.056414642,-4.348906403,26.56091629,27.21855545
6.032268542,4.399201813,-4.142635345,14.97336273,16.14670232
6.042301542,4.504432983,-24.51811432,5.064867554,25.43778154
6.052334542,8.842262421,-45.21766937,48.8934256,67.18177056
6.062367542,-5.872587891,-11.33697464,-31.19602753,33.70766109
6.072400542,8.512647858,1.389710083,-13.21556808,15.78124543
6.082432542,11.89276886,2.88899231,-0.049397278,12.23873636
6.092465542,6.769373016,-1.120270386,-12.44047989,14.20721495
6.102498542,5.466482391,-7.053781586,-12.07029968,15.01100925
6.112531542,1.998045044,-8.362061005,0.282163239,8.602084883
6.122564542,-2.616409149,-5.601351929,9.320068817,11.18411476
6.132597542,-1.031504974,-1.088237,4.417912903,4.665427815
6.142629542,2.107018433,1.546434174,-2.911744995,3.912702933
6.152662542,5.089416504,3.691174164,-4.118535461,7.515933835
6.162695542,-0.920735321,0.645607452,0.425115967,1.202200524
6.172728542,-8.094417572,4.282743988,13.43052109,16.25547257
6.182761542,-23.62058075,9.637558594,37.6275531,45.4603907
6.192794542,0.032482452,-1.50706604,-7.725883942,7.871568194
6.202826542,-0.004340973,-0.249381409,-0.85651886,0.89209556
6.212859542,0.731229401,-0.201630707,-6.025420074,6.072976079
6.222892542,0.502654724,0.946481781,-1.829495544,2.120269672
6.232925542,1.606159973,-1.873653717,27.31489838,27.42615543
6.242958542,0.518222351,0.822689209,5.368885345,5.456216802
6.252991542,6.574478302,-1.382824402,9.762249298,11.85063203
6.263023542,-3.228935394,-0.983005829,18.90523636,19.20417366
6.273056542,-0.783321075,-2.540816345,10.25801834,10.59699391
6.283089542,-0.709823914,-1.091829529,10.8292305,10.90725332
6.293122542,0.074544983,-1.420545959,12.63821869,12.71802184
6.303155542,2.016756134,-0.425115967,10.9579628,11.1501111
6.313188542,1.03315155,0.197589111,8.395890656,8.461526073
6.323220542,0.594114533,1.433119812,6.256090393,6.445577668
6.333253542,-0.876277771,0.887654114,6.973997498,7.084661859
6.343286542,0.182320862,0.484542389,7.875422974,7.892421
6.353319542,1.31756012,0.066910858,9.770332489,9.858997854
6.363352542,0.897533569,-0.319585419,10.07420059,10.1191511
6.373385542,0.362246704,-0.901425476,11.07187592,11.11441527
6.383417542,-0.010178833,-1.17475708,12.17268677,12.22924613
6.393450542,0.013172607,-0.984802094,11.25868744,11.30168357
6.403483542,0.566422119,-0.502505035,10.34543655,10.3731096
6.413516542,0.66701294,-0.163909149,9.598340149,9.622884499
6.423549542,0.526604919,0.049546967,9.135802002,9.151100801
6.433582542,0.433498535,0.098495178,9.064250793,9.075145438
6.443614542,0.45984375,0.14504837,9.054371338,9.067201091
6.453647542,0.485739899,0.113763428,9.089099121,9.102780246
6.463680542,0.44233017,0.04565506,9.223669281,9.234382241
6.473713542,0.521216126,-0.082328796,9.433682556,9.448429015
6.483746542,0.590971069,-0.291294251,9.993817749,10.01551259
6.493778542,0.422271881,-0.586330719,10.64690964,10.67140019
6.503811542,0.241747284,-0.658630371,10.76471466,10.78755382
6.513844542,0.366887054,-0.522713013,10.49362839,10.51304293
6.523877542,0.480800171,-0.309256897,9.875863037,9.892395027
6.533910375,0.523760834,-0.118254089,9.50583252,9.520985313
6.543943375,0.486188965,-0.050594788,9.366023254,9.378770236
6.553975375,0.462987213,-0.035775604,9.323661346,9.335218153
6.564008375,0.486188965,-0.076341248,9.430988159,9.443820485
6.574041375,0.484243012,-0.165855103,9.647288361,9.660857722
6.584074375,0.483644257,-0.288899231,9.915530548,9.931521564
6.594107375,0.42945694,-0.402063904,10.20353165,10.22047683
6.604140375,0.38844223,-0.41074585,10.2147583,10.23039035
6.614172375,0.43993515,-0.343535614,10.03079086,10.04630902
6.624205375,0.463286591,-0.235759735,9.761949921,9.775780448
6.634238375,0.476459198,-0.16031662,9.616302795,9.629433744
6.644271375,0.470920715,-0.134869537,9.56780365,9.580335213
6.654304375,0.46687912,-0.164208527,9.605076141,9.617818268
6.664337375,0.457299042,-0.212557983,9.726473694,9.73953766
6.674369375,0.458346863,-0.270188141,9.868228912,9.882561679
6.684402375,0.433199158,-0.314645691,9.980046387,9.994397896
6.694435375,0.446072388,-0.308358765,9.96911911,9.983857047
6.704468375,0.4552034,-0.271235962,9.878557434,9.892758769
6.714501375,0.456400909,-0.215551758,9.76673996,9.779773709
6.724534375,0.464334412,-0.198038178,9.68830307,9.701445353
6.734566375,0.474213867,-0.201031952,9.689799957,9.703479574
6.744599375,0.471968536,-0.216749268,9.752818909,9.766637661
6.754632375,0.459993439,-0.252524872,9.826016693,9.84001864
6.764665375,0.45280838,-0.269888763,9.874216461,9.888277206
6.774698375,0.452958069,-0.268691254,9.882000275,9.896024223
6.784731375,0.459544373,-0.259410553,9.832752686,9.846903079
6.794763375,0.459993439,-0.241597595,9.78425354,9.798039635
6.804796375,0.471070404,-0.222886505,9.751172333,9.765088201
6.814829375,0.457448731,-0.226029968,9.748328247,9.761672628
6.824862375,0.461340637,-0.235011292,9.78425354,9.797942785
6.834895375,0.464334412,-0.240400085,9.823471985,9.837377724
6.844928375,0.458047485,-0.250578919,9.84397934,9.857815505
6.854960375,0.452658691,-0.252973938,9.840237122,9.85389072
6.864993375,0.460292816,-0.241597595,9.807305603,9.821073366
6.875026375,0.463735657,-0.245639191,9.787546692,9.801604951
6.885059375,0.468376007,-0.23171814,9.793234863,9.807166689
6.895092375,0.463136902,-0.239801331,9.780062256,9.79395825
6.905125375,0.463735657,-0.23635849,9.800419922,9.814231847
6.915157375,0.461190949,-0.24099884,9.810598755,9.824389317
6.925190375,0.460143127,-0.25506958,9.813143463,9.827236479
6.935223375,0.461190949,-0.253423004,9.805659027,9.819769308
6.945256375,0.457448731,-0.250129852,9.804461517,9.818314006
6.955289375,0.458197174,-0.240100708,9.797426147,9.811072934
6.965322375,0.464035034,-0.236957245,9.795180817,9.809028723
6.975354375,0.463735657,-0.234711914,9.801168365,9.814939723
6.985387375,0.454754334,-0.238903198,9.795180817,9.808641265
6.995420375,0.452658691,-0.243842926,9.809101868,9.822567827
7.005453375,0.453407135,-0.239951019,9.797426147,9.810846734
7.015486375,0.464334412,-0.234711914,9.79128891,9.80510248
7.025519375,0.465531921,-0.240100708,9.799222412,9.813211921
7.035551375,0.458197174,-0.247884522,9.794132996,9.807978004
7.045584375,0.464334412,-0.239052887,9.789043579,9.802965211
7.055617375,0.464184723,-0.242495728,9.801467743,9.815449126
7.065650375,0.464783478,-0.244441681,9.802365875,9.816422575
7.075683375,0.462837524,-0.242944794,9.803413696,9.817339805
7.085715375,0.459095306,-0.240100708,9.810598755,9.824269173
7.095748375,0.467926941,-0.239651642,9.805509338,9.819592757
7.105781375,0.465980988,-0.234711914,9.788295135,9.802191062
7.115814375,0.461640015,-0.222886505,9.795779572,9.809183825
7.125847375,0.463286591,-0.241298218,9.807006226,9.82090782
7.135880375,0.464184723,-0.242795105,9.805958405,9.819940792
7.145912375,0.461340637,-0.241298218,9.804461517,9.818275086
7.155945375,0.462987213,-0.234861603,9.797875214,9.81161943
7.165978375,0.474513245,-0.247585144,9.80176712,9.816368978
7.176011375,0.469124451,-0.244890747,9.795629883,9.809914068
7.186044375,0.459095306,-0.229772186,9.805808716,9.819238684
7.196077375,0.465831299,-0.232765961,9.800569611,9.814394708
7.206109375,0.463286591,-0.246387634,9.810449066,9.824472109
7.216142375,0.458047485,-0.241148529,9.800719299,9.814380209
7.226175375,0.461490326,-0.237556,9.796228638,9.809969505
7.236208375,0.465980988,-0.236807556,9.79592926,9.809864738
7.246241375,0.462837524,-0.235610046,9.800419922,9.814171453
7.256274375,0.461939392,-0.239651642,9.800120544,9.813928041
7.266306375,0.467178497,-0.240849152,9.796378326,9.81046851
7.276339375,0.46568161,-0.238454132,9.799372101,9.81332835
7.286372375,0.468226318,-0.238454132,9.791588287,9.805676797
7.296405375,0.457897797,-0.242495728,9.79473175,9.808427225
7.306438375,0.4644841,-0.241298218,9.794132996,9.808109474
7.316471375,0.464184723,-0.239052887,9.794282684,9.808189794
7.326503375,0.461939392,-0.239651642,9.795779572,9.809593178
7.336536375,0.462687836,-0.230670319,9.79952179,9.813150164
7.346569375,0.46568161,-0.241148529,9.808054047,9.822063742
7.356602375,0.453556824,-0.239951019,9.797575836,9.811003137
7.366635375,0.462089081,-0.23635849,9.790989532,9.804737002
7.376668375,0.465382233,-0.240549774,9.801318054,9.815308473
7.386701375,0.461939392,-0.238903198,9.804311829,9.818095191
7.396733375,0.461340637,-0.234861603,9.80760498,9.821258097
7.406766375,0.467627564,-0.236208801,9.798473969,9.812469732
7.416799375,0.474812622,-0.23516098,9.803413696,9.81772213
7.426832375,0.461939392,-0.239202576,9.796977081,9.810778043
7.436865375,0.468525696,-0.235759735,9.803862762,9.81788287
7.446897375,0.465082855,-0.239352264,9.800719299,9.814667104
7.456930375,0.456400909,-0.236657867,9.807455292,9.820920936
7.466963375,0.465382233,-0.248632965,9.796977081,9.811175205
7.476996375,0.478405151,-0.233813782,9.795480194,9.809942538
7.487029375,0.471818848,-0.239352264,9.814041595,9.828291559
7.497062375,0.424517212,-0.206869812,9.726324005,9.737781505
7.507094375,0.625249786,-0.149688721,9.406439209,9.428384941
7.517127375,0.305664368,-0.277672577,10.39752823,10.40572564
7.527160375,0.61896286,-0.286204834,9.225764923,9.250933285
7.53719275,0.267793121,-0.316591644,10.60484711,10.61295084
7.54722575,0.570763092,-0.2574646,9.617350616,9.637711938
7.55725875,0.170345764,-0.401914215,10.10698242,10.11640482
7.56729175,1.086141357,-0.40954834,10.54691757,10.61060334
7.57732375,0.39083725,0.279468842,8.514444122,8.527990109
7.58735675,-0.014220428,-0.016765137,8.685238953,8.685266775
7.59738975,0.764909363,-0.041314087,9.840835876,9.870605044
7.60742275,0.155077515,-1.037043457,11.40822647,11.45631439
7.61745575,0.046702881,-1.85105072,9.943672028,10.11460248
7.62748875,-1.157692566,-3.088527374,9.510023804,10.065774
7.63752075,-0.823886719,-4.223766632,8.836574249,9.828735338
7.64755375,0.31704071,-3.597469025,8.681047668,9.402280937
7.65758675,1.600920868,-1.525328064,9.158554688,9.421714138
7.66761975,0.839604034,0.468525696,9.236991577,9.286897472
7.67765275,-0.031434631,1.318458252,10.42896286,10.51202105
7.68768575,-0.321531372,0.263901215,14.24677368,14.25284486
7.69771775,-1.377585297,-1.518891449,9.583371277,9.800294767
7.70775075,-1.242865448,-1.952389984,9.16409317,9.451832881
7.71778375,-1.329086151,-1.51993927,9.986483002,10.18854887
7.72781675,-1.242266693,-0.676892395,10.32418076,10.42065824
7.73784975,-0.637075195,-0.267344055,10.60843964,10.63091384
7.74788275,0.15567627,0.026345215,10.74151291,10.74267326
7.75791475,0.520467682,0.320034485,11.50297943,11.51919461
7.76794775,0.614472199,0.427660675,12.04664886,12.06988892
7.77798075,0.546812897,0.482147369,12.10772186,12.12964959
7.78801375,0.17663269,0.374072113,11.88797882,11.89517421
7.79804675,-0.206720123,0.171543274,11.24910736,11.25231428
7.80807975,-0.459244995,-0.161663818,10.28975235,10.30126422
7.81811175,-0.699345703,-0.77927948,9.195078735,9.254503437
7.82814475,-0.693058777,-0.831221466,8.324489136,8.394544595
7.83817775,-0.634081421,-0.363743591,7.691455536,7.726115253
7.84821075,-0.698297882,0.211959229,7.241191864,7.277870998
7.85824375,-0.903670807,0.820743256,7.287745056,7.389280643
7.86827675,-1.073118439,1.055604858,7.784861298,7.929057335
7.87830975,-1.039588165,0.836161194,8.281229095,8.388007179
7.88834175,-0.944535828,0.40835083,8.883576508,8.942976568
7.89837475,-0.943188629,-0.033530273,9.561217346,9.607684748
7.90840775,-0.995429993,-0.359103241,9.731114044,9.788483874
7.91844075,-1.249451752,-0.424367523,9.610614624,9.700779913
7.92847375,-1.515448608,-0.29249176,9.488917694,9.613620282
7.93850675,-1.463356934,-0.185015259,9.119186554,9.237705752
7.94853875,-1.100960541,-0.33470398,8.740025024,8.815451111
7.95857175,-0.541573792,-0.534388733,8.640032959,8.673467762
7.96860475,-0.015118561,-0.523611145,8.711883545,8.727617779
7.97863775,0.254770203,-0.427810364,9.080417175,9.09405881
7.98867075,0.397273865,-0.453407135,9.592801666,9.611724526
7.99870375,0.450113983,-0.729582825,10.06297394,10.09942267
8.00873575,0.448617096,-0.968186646,10.34768188,10.4025556
8.01876875,0.398321686,-1.106199646,10.41159897,10.47777318
8.02880175,0.286055145,-1.07296875,10.32073792,10.38030446
8.03883475,0.212258606,-0.952169952,10.23676254,10.28314099
8.04886775,0.245040436,-0.77224411,10.00264938,10.03540734
8.05890075,0.298479309,-0.714613953,9.704469452,9.735321789
8.06893375,0.310304718,-0.72434372,9.579778748,9.61213419
8.07896575,0.287552033,-0.75233551,9.55837326,9.592246571
8.08899875,0.211959229,-0.791104889,9.554780731,9.589817959
8.09903175,0.115559692,-0.83196991,9.599088593,9.635768251
8.10906475,-0.008681946,-0.756377106,9.663005676,9.692567276
8.11909775,-0.241447907,-0.428558807,9.742789764,9.755199236
8.12913075,-0.42945694,-0.1486409,9.805808716,9.816333936
8.13916275,-0.529449005,-0.024249573,9.948162689,9.962271086
8.14919575,-0.523311768,-0.100890198,10.07285339,10.08694253
8.15922875,-0.406105499,-0.254021759,10.09590546,10.10726252
8.16926175,-0.356708221,-0.365689545,9.972561951,9.985637759
8.17929475,-0.347726898,-0.362845459,9.749825134,9.762769124
8.18932775,-0.365839233,-0.430055695,9.569150848,9.585793353
8.19935975,-0.392633514,-0.457448731,9.538314972,9.557346542
8.20939275,-0.286803589,-0.345631256,9.620194702,9.630673049
8.21942575,-0.155825958,-0.029338989,9.764644318,9.765931658
8.22945875,-0.081430664,0.181572418,9.87556366,9.87756838
8.23949175,-0.035476227,0.167501679,11.20659576,11.20790364
8.24952475,0.592168579,0.212707672,12.81634827,12.83178441
8.25955775,0.738564148,-0.002844086,10.0396225,10.06675245
8.26958975,0.340092773,-0.2574646,9.476942596,9.486537413
8.27962275,0.471369782,-0.471968536,9.889634399,9.912104334
8.28965575,0.481398926,-0.474363556,10.05533981,10.07802681
8.29968875,0.278121643,-0.486937408,10.17464172,10.19008312
8.30972175,0.164058838,-0.493074646,10.28062134,10.29374631
8.31975475,0.150886231,-0.438288574,10.15847534,10.16904542
8.32978675,0.176483002,-0.358953552,10.1961969,10.20403965
8.33981975,0.164807282,-0.318537598,10.16745667,10.17378016
8.34985275,0.299377441,-0.399369507,10.08288254,10.09522873
8.35988575,0.508642273,-0.570314026,10.1484462,10.17717718
8.36991875,0.371826782,-0.830023956,9.711205444,9.753702174
8.37995175,0.12633728,-0.834065552,9.35599411,9.393947639
8.38998375,-0.145796814,-0.673150177,9.034462738,9.060679049
8.40001675,-0.263152771,-0.586480408,8.762328644,8.785875705
8.41004975,-0.392184448,-0.527652741,8.663983154,8.688891192
8.42008275,-0.546214142,-0.489332428,8.694819031,8.725690465
8.43011575,-0.658330994,-0.44816803,8.967851257,9.003144476
8.44014875,-0.626297607,-0.352816315,9.263486481,9.291335201
8.45018075,-0.487386475,-0.105081482,9.571096802,9.584074378
8.46021375,-0.350271606,0.200582886,10.03797592,10.04608801
8.47024675,-0.357606354,0.341290283,10.54976166,10.56133668
8.48027975,-0.603694611,0.262703705,10.85647385,10.87641875
8.49031275,-0.308807831,0.227975922,10.56682617,10.57379547
8.50034575,0.625848541,0.245639191,10.35456757,10.37637193
8.51037875,1.550775146,-0.046253815,10.28825546,10.404578
8.52041075,1.539099426,-0.236208801,9.994566193,10.11513594
8.53044375,0.627794495,-0.160166931,9.623188477,9.644974641
8.540477167,0.002095642,-0.129780121,9.524094543,9.524978958
8.550510167,-0.171692963,-0.123044128,9.589658203,9.591984299
8.560543167,-0.232915649,-0.020956421,9.54789505,9.550758544
8.570576167,-0.12992981,-0.031135254,9.51631073,9.517248608
8.580608167,0.147892456,-0.099243622,9.613309021,9.614958752
8.590641167,0.308658142,-0.113913117,9.730814667,9.736375102
8.600674167,0.32183075,-0.123343506,9.896220703,9.902220602
8.610707167,0.29608429,-0.184266815,10.05758514,10.06362952
8.620740167,0.167950745,-0.286204834,10.06327332,10.06874324
8.630773167,0.091759186,-0.281115418,10.00249969,10.00686993
8.640805167,0.05852829,-0.235460358,9.91059082,9.913560286
8.650838167,0.099542999,-0.164657593,9.808054047,9.809941137
8.660871167,0.17079483,-0.113314362,9.734556885,9.736714475
8.670904167,0.20597168,-0.12169693,9.69997879,9.702928579
8.680937167,0.223634949,-0.132474518,9.754315796,9.757778371
8.690970167,0.21644989,-0.138462067,9.846973114,9.850324959
8.701003167,0.198187866,-0.151784363,9.844877472,9.848041905
8.711035167,0.174986115,-0.149539032,9.873917084,9.87659965
8.721068167,0.185164948,-0.144299927,9.886490936,9.889277606
8.731101167,0.203726349,-0.116607513,9.862241364,9.865034539
8.741134167,0.242944794,-0.110470276,9.724976807,9.728638124
8.751167167,0.271385651,-0.121846619,9.765692139,9.770222091
8.761200167,0.250279541,-0.142054596,9.825867004,9.830080455
8.771232167,0.229472809,-0.161364441,9.888287201,9.892265667
8.781265167,0.197140045,-0.171243897,9.935289459,9.938720507
8.791298167,0.172441406,-0.191002808,9.934241638,9.937573901
8.801331167,0.164358215,-0.172890472,9.955347748,9.958205336
8.811364167,0.192200317,-0.204025726,9.968520355,9.972460355
8.821397167,0.214204559,-0.191601563,9.991123352,9.995255904
8.831429167,0.184566193,-0.201181641,9.953102417,9.95684621
8.841462167,0.172291718,-0.247435455,9.949060822,9.953628483
8.851495167,0.148491211,-0.39083725,9.85565506,9.864519251
8.861528167,0.136665802,-0.222587128,9.847721558,9.851184825
8.871561167,0.035925293,-0.202528839,9.777068481,9.779231905
8.881594167,0.108524323,-0.28321106,9.599837036,9.604626862
8.891626167,0.414787445,-0.533640289,9.514215088,9.538192141
8.901659167,0.434546356,-0.492924957,9.54085968,9.563462186
8.911692167,0.563428345,-0.2574646,9.718540192,9.738262832
8.921725167,0.545914764,0.022004242,9.977801056,9.992748422
8.931758167,0.339494019,0.180674286,9.943971405,9.951405262
8.941791167,0.051043854,0.360749817,9.690099335,9.696946479
8.951823167,-0.199684753,0.681981812,9.646090851,9.672230451
8.961856167,-0.265697479,0.859662323,9.709259491,9.75086326
8.971889167,-0.054187317,0.315543823,9.65432373,9.65963099
8.981922167,-0.031135254,0.00464035,9.739197235,9.739248109
8.991955167,-0.143401794,-0.007484436,9.917027435,9.918067011
9.001988167,0.025297394,0.116158447,9.842183075,9.842901017
9.012020167,0.296683044,0.327219544,9.671987,9.682067237
9.022053167,0.634530487,0.436342621,9.623487854,9.65424996
9.032086167,1.60301651,0.281863861,9.433981934,9.573354913
9.042119167,0.455802155,0.054187317,9.786049805,9.796808799
9.052152167,0.593366089,-0.283809815,10.62430664,10.64464762
9.062185167,0.315094757,-0.127235413,10.1430574,10.14874805
9.072218167,0.40715332,0.086370392,9.535770264,9.544849302
9.082250167,0.323177948,0.061372375,9.569899292,9.575551316
9.092283167,0.375718689,-0.044607239,9.929002533,9.936208816
9.102316167,0.370329895,-0.069605255,10.00699036,10.01408234
9.112349167,0.377065888,-0.042212219,9.877659302,9.884943795
9.122382167,0.331410828,0.006885681,9.783355408,9.788969485
9.132415167,0.364342346,-0.004490662,9.786798248,9.793578787
9.142447167,0.307161255,-0.03397934,9.87316864,9.878003929
9.152480167,0.402063904,-0.037721558,9.861642609,9.869907458
9.162513167,0.40835083,-0.033081207,9.803563385,9.812120047
9.172546167,0.427960053,-0.014968872,9.772278442,9.781656293
9.182579167,0.413739624,-0.143102417,9.80296463,9.812735313
9.192612167,0.408500519,-0.49966095,9.796228638,9.817465521
9.202644167,0.480500794,-0.505049744,9.721683655,9.74664503
9.212677167,0.455053711,-0.408201141,9.678872681,9.698158507
9.222710167,0.426463165,-0.213755493,9.788145447,9.799762932
9.232743167,0.529149628,-0.353714447,9.719588013,9.74040576
9.242776167,0.375569,-0.303419037,9.722432098,9.734413238
9.252809167,0.240549774,0.004191284,9.941726074,9.9446367
9.262841167,0.123792572,0.244741058,10.06327332,10.06701011
9.272874167,0.319735107,0.438138886,9.907297668,9.92213401
9.282907167,0.327518921,0.158370667,9.549990692,9.556917502
9.292940167,0.249531097,-0.525706787,9.617949371,9.635537531
9.302973167,0.607137451,-0.438438263,10.12689102,10.15454409
9.313006167,0.472567291,-0.204325104,10.00968475,10.02291661
9.323038167,0.055983582,-0.333057404,9.710457001,9.716328348
9.333071167,-0.415086823,-0.333356781,9.697733459,9.712335356
9.343104167,-0.082029419,-1.211580505,9.353449402,9.431949526
9.353137167,0.700992279,-0.667162628,10.18721558,10.23307663
9.363170167,1.094224548,0.057181091,9.968670044,10.02870777
9.373203167,0.70443512,0.287402344,10.01821701,10.0470643
9.383235167,2.556533661,1.091979218,10.05099884,10.42836807
9.393268167,1.837429047,0.5932164,9.571096802,9.763910343
9.403301167,0.485889587,-0.15328125,9.468110962,9.481809375
9.413334167,0.718505859,-0.448617096,9.896969147,9.933151879
9.423367167,0.955163727,-0.614472199,9.693542175,9.759850088
9.433400167,1.007105713,-0.775986328,9.59474762,9.67861553
9.443432167,0.949176178,-0.914598084,9.740544434,9.82932505
9.453465167,0.860111389,-0.286354523,9.696985016,9.739266344
9.463498167,0.378712463,-0.247585144,9.82871109,9.839120043
9.473531167,-0.055534515,-0.477656708,10.22448807,10.23578997
9.483564167,-1.129850464,-0.059576111,9.145232391,9.214954524
9.493597167,-1.327140198,0.461939392,9.479786682,9.583373344
9.503630167,-1.20289856,-0.512384491,10.3342099,10.41659239
9.513662167,-0.314196625,-0.299377441,10.67819458,10.68701015
9.523695167,-0.366587677,0.192649384,9.846074982,9.854780203
9.533728,-1.144969025,-0.627644806,8.88567215,8.981094678
9.543761,0.598455505,0.000299377,10.45111679,10.46823726
9.553794,1.06129303,0.443228302,9.813891907,9.881056046
9.563827,0.634081421,0.232765961,9.723928986,9.747360369
9.573859,2.342329102,1.091230774,9.870324554,10.20297001
9.583892,1.822310486,1.211879883,9.689799957,9.933865892
9.593925,0.390986939,0.229173431,9.487420807,9.498239038
9.603958,0.56866745,-0.034129028,9.926607513,9.942941425
9.613991,1.044378204,0.114811249,10.12569351,10.18005779
9.624024,1.241817627,0.401914215,9.407936096,9.49804757
9.634056,0.771495667,0.508642273,9.688901825,9.732869109
9.644089,0.749341736,0.602796478,10.09650421,10.14220262
9.654122,0.853225708,0.468825073,9.642348633,9.691371328
9.664155,0.597108307,-0.175435181,9.680519257,9.700503539
9.674188,0.564326477,-0.057630157,9.823771362,9.840135639
9.684221,0.591719513,-0.080083466,9.799222412,9.817398088
9.694253,0.570463715,-0.050894165,9.749226379,9.766034715
9.704286,0.568517761,-0.045505371,9.723330231,9.740042811
9.714319,0.56986496,-0.0690065,9.761800232,9.778663085
9.724352,0.564925232,-0.063617706,9.767787781,9.784317343
9.734385,0.552501068,-0.060025177,9.791139221,9.806898985
9.744418,0.551453247,-0.076490936,9.798174591,9.813978646
9.754451,0.545615387,-0.077688446,9.821825409,9.837275335
9.764483,0.538580017,-0.085322571,9.824819183,9.839940059
9.774516,0.54292099,-0.095202026,9.823022919,9.838475791
9.784549,0.551004181,-0.086669769,9.808503113,9.82434988
9.794582,0.552950134,-0.078586578,9.816436615,9.832311911
9.804615,0.558937683,-0.087268524,9.813742218,9.830033746
9.814648,0.549357605,-0.088615723,9.791887665,9.8076863
9.82468,0.545166321,-0.09475296,9.811796265,9.827386752
9.834713,0.535735931,-0.099393311,9.830207977,9.8452974
9.844746,0.552501068,-0.094453583,9.813442841,9.829437384
9.854779,0.545914764,-0.098195801,9.806557159,9.822231349
9.864812,0.541274414,-0.094303894,9.819879456,9.835237859
9.874845,0.549806671,-0.094154205,9.809401245,9.825248352
9.884878,0.544866943,-0.096100159,9.816436615,9.832016225
9.89491,0.55115387,-0.091160431,9.813293152,9.829181212
9.904943,0.54995636,-0.086819458,9.784403229,9.800231434
9.914976,0.542621613,-0.08427475,9.801318054,9.81668865
9.925009,0.557141419,-0.085621948,9.789492645,9.805707722
9.935042,0.552650757,-0.0889151,9.795031128,9.811012361
9.945075,0.552501068,-0.086819458,9.792935486,9.808892928
9.955107,0.553848267,-0.075742493,9.79712677,9.81306159
9.96514,0.551902313,-0.082777863,9.79473175,9.810617636
9.975173,0.556542664,-0.077538757,9.787247314,9.80336483
9.985206,0.54756134,-0.079484711,9.787995758,9.803621892
9.995239,0.545166321,-0.072449341,9.795779572,9.811205463
10.005272,0.550106049,-0.081580353,9.789792023,9.805574938
10.015305,0.554447022,-0.089064789,9.798923035,9.815000595
10.025337,0.557291107,-0.084424438,9.806856537,9.823041077
0.004365708,-1.922601929,6.720424805,6.856940918,9.791738685
0.014397708,-1.822909241,6.583759003,6.654561768,9.536879627
0.024430708,-1.727557526,6.550977173,6.69991745,9.528307864
0.034463708,-1.790875854,6.685697021,7.056475983,9.884312535
0.044496708,-1.926493835,7.008276215,7.481142883,10.4304752
0.054529708,-2.279160461,7.279212799,7.902067566,10.98290413
0.064562708,-2.521057434,7.278763733,8.435558167,11.42343091
0.074595708,-2.540816345,7.088659058,8.870553589,11.63578772
0.084628708,-2.486329651,6.907386017,9.206455078,11.77508522
0.094661708,-2.361638947,6.694678345,9.517807617,11.8736986
0.104694708,-2.102228394,6.46236145,9.772877197,11.90338643
0.114727708,-1.540596313,6.225553894,9.984686737,11.86696792
0.124760708,-0.857117615,6.105054474,9.938582611,11.69537366
0.134792708,-0.308508453,5.799988861,9.650282135,11.26334735
0.144825708,-0.003293152,5.02085907,9.20974823,10.48944704
0.154858708,-0.003442841,4.275858307,8.876690826,9.852848123
0.164891708,-0.282911682,4.135599976,8.328830109,9.30336698
0.174924708,-0.909808044,4.516108704,7.749834137,9.015703947
0.184957708,-1.73519165,4.797822876,7.469167786,9.045355815
0.194990708,-2.722239075,4.833149414,7.80447052,9.574950597
0.205023708,-3.508404236,4.826712799,8.53689743,10.41559765
0.215056708,-3.681743774,4.890779572,9.344468079,11.17112553
0.225089708,-3.29614563,4.874463501,10.4297113,11.97513458
0.235122708,-2.692900085,4.681664429,11.60985718,12.80462715
0.245154708,-2.043251038,4.469256134,12.28540237,13.23178887
0.255187708,-1.467398529,4.330943756,12.1695433,13.00031217
0.265220708,-0.855770416,4.039050751,11.55851395,12.27377361
0.275253708,-0.213605804,3.545077972,10.75827805,11.32933148
0.285286708,0.30895752,3.12295578,9.697134705,10.19228772
0.295319708,0.811462555,2.902314606,8.546477509,9.062239202
0.305352708,1.267713776,2.846929779,7.389234009,8.019531571
0.315385708,1.586550751,2.847378845,6.401138763,7.183264372
0.325418708,1.739382935,2.792143707,5.724396057,6.602289731
0.335451708,1.621278534,2.63856308,5.392985229,6.218910588
0.345484708,1.221909027,2.487976227,5.460943909,6.124132245
0.355517708,0.718655548,2.578238525,5.853128357,6.436061781
0.365549708,0.279768219,2.989433441,6.301146698,6.979930678
0.375582458,0.030985565,3.317700806,6.537654877,7.331372997
0.385615458,0.045505371,3.307671661,6.620881805,7.401272758
0.395648458,0.22588028,2.94632309,6.569388885,7.203381982
0.405681458,0.324674835,2.54381012,6.361022186,6.858497425
0.415714458,0.460143127,2.235151978,5.867498474,6.295647259
0.425747458,0.65878006,2.055675201,5.031037903,5.474589855
0.435780458,0.873283997,1.913919983,4.172423401,4.672775586
0.445813458,0.99812439,1.732197876,3.554059296,4.077756645
0.455846458,0.955762482,1.509910126,3.182980957,3.650298383
0.465879458,0.977916412,1.364263,2.750380554,3.222130853
0.475911458,0.885558472,1.245260468,2.299069061,2.760544509
0.485944458,0.659528503,1.222208405,2.166295166,2.573248138
0.495977458,0.440982971,1.082099762,2.379601593,2.651020486
0.506010458,0.514330444,0.929417267,2.359692993,2.587760283
0.516043458,0.782572632,0.741408234,2.546953583,2.765696774
0.526076458,1.121767273,0.420774994,2.748284912,2.998079947
0.536109458,1.225950623,0.136965179,2.861748962,3.11629933
0.546142458,1.249002686,-0.149239655,3.187172241,3.426418988
0.556175458,1.118174744,-0.476459198,3.496578827,3.701809236
0.566208458,1.031654663,-0.625698853,3.758983154,3.947881046
0.576240458,1.040635986,-0.848735046,4.003574524,4.222781477
0.586273458,1.253942413,-1.024918671,4.685706024,4.95768805
0.596306458,1.537303162,-1.19586319,5.448669434,5.786310429
0.606339458,1.773511963,-1.115929413,6.059698792,6.411754251
0.616372458,1.815125427,-1.235680389,6.418951721,6.784137936
0.626405458,1.74926239,-1.509011993,7.371720428,7.725237743
0.636438458,1.567839661,-1.577868805,8.346044312,8.637374996
0.646471458,1.401834869,-1.772763519,9.262139282,9.533889845
0.656504458,1.404379578,-2.325414276,10.22373962,10.5785011
0.666537458,1.322350159,-2.294279022,11.85444855,12.14661585
0.676569458,1.026265869,-1.795965271,11.76358749,11.94406562
0.686602458,1.386416931,-1.820364532,12.28659988,12.49785644
0.696635458,1.091979218,-1.32339798,12.49421814,12.61147445
0.706668458,1.035845947,-1.14901062,12.51113297,12.60641306
0.716701458,1.235231323,-1.489851837,12.85945862,13.00427356
0.726734458,1.016985168,-1.882485352,12.74060577,12.91901875
0.736767458,1.250050507,-2.684517517,13.46150665,13.78337484
0.746800458,0.659229126,-2.022743683,13.82644775,13.98916483
0.756833458,0.29249176,-0.71027298,14.45948135,14.47987017
0.766866458,0.494721222,0.079185333,15.41419601,15.42233634
0.776898458,0.509241028,0.098944244,16.47010025,16.47826807
0.786931458,0.170046387,-0.202229462,17.68826706,17.69024036
0.796964458,-0.351469116,0.433648224,17.55923538,17.56810543
0.806997458,-1.301992493,2.070195007,17.06376572,17.23812612
0.817030458,-1.742825775,2.519410858,15.94199844,16.23367448
0.827063458,-1.6217276,0.777333527,16.14976639,16.24959083
0.837096458,-1.844614105,-1.451980591,17.26599518,17.42485117
0.847129458,-2.100881195,-2.362836456,18.66034561,18.92630963
0.857162458,-2.194586334,-1.64986908,20.18971527,20.37554612
0.867195458,-2.692750397,-0.956361237,21.54843979,21.73708326
0.877227458,-2.502046967,-1.016386414,23.45472565,23.60968944
0.887260458,-1.72935379,-1.314117279,24.61870514,24.71433211
0.897293458,-1.29061615,-1.272653503,24.22203003,24.28975248
0.907326458,-1.657353516,-1.070873108,22.41214371,22.49883942
0.917359458,-2.559078369,-0.887504425,20.17863831,20.35961665
0.927392458,-3.063080292,-0.943637695,18.38985809,18.6670778
0.937425458,-2.824775848,-1.099613342,17.15477646,17.42052994
0.947458458,-2.314636688,-0.67749115,15.93705872,16.11851041
0.957491458,-1.933828583,0.310304718,14.81574051,14.94463612
0.967524458,-1.671424255,1.533710632,13.9014418,14.08531191
0.977557458,-1.403631134,2.799777832,13.11153442,13.48040323
0.987589458,-1.228345642,4.256548462,12.3647374,13.13444969
0.997622458,-1.001118164,5.099445648,11.53770721,12.65406145
1.007655458,-0.692310333,5.084776154,10.94823303,12.09123851
1.017688458,-0.489482117,4.453538818,10.48315018,11.40044027
1.027721458,-0.080981598,3.247945862,10.05234604,10.56434433
1.037754458,0.239501953,2.045196991,9.240584106,9.467237535
1.047787458,0.378562775,1.19586319,8.768765259,8.858027021
1.057820458,0.391286316,0.230670319,8.25144104,8.263933265
1.067853458,0.123343506,-0.628542938,7.975115662,8.000796814
1.077886458,-0.111069031,-1.369801483,7.844437408,7.96391177
1.087918458,-0.227227478,-2.177821198,8.048014069,8.340567603
1.097951458,-0.10418335,-2.938688965,8.203390961,8.714491968
1.107984458,0.198187866,-3.54882019,8.246501312,8.979876785
1.118017458,0.27033783,-3.984564056,8.238418121,9.155400942
1.128050458,0.18366806,-3.754492493,8.174351349,8.997220004
1.138083458,-0.633632355,-3.103196869,7.339537354,7.993755646
1.148116458,-0.042810974,-5.195845184,8.250991974,9.750769637
1.158149458,0.542172546,-5.875132599,9.044042816,10.79841862
1.168182458,0.257763977,-4.810995483,7.724237366,9.103623602
1.178215458,0.183218994,-4.358785858,7.251969452,8.463075345
1.188247458,0.330961762,-4.887336731,7.821085968,9.22848751
1.198280458,0.614023132,-5.521418152,8.162076874,9.87332678
1.208313458,0.915196838,-5.600304108,8.250093842,10.01324322
1.218346458,1.24496109,-5.878874817,8.854237518,10.70087002
1.228379458,1.796264648,-6.500532074,9.582024078,11.71745149
1.238412458,2.125430145,-6.821165314,10.19499939,12.44924745
1.248445458,2.177372131,-6.558162231,10.59466827,12.64900933
1.258478458,2.022893372,-5.600453796,10.59526703,12.15388266
1.268511458,1.768123169,-4.405189362,10.18946091,11.24086591
1.278544458,1.677411804,-3.789819031,10.14485367,10.95876337
1.288577458,2.013462982,-4.007765808,10.42821442,11.35182258
1.298609458,2.548899536,-4.678071899,10.48434769,11.76022074
1.308642458,3.064577179,-5.496120758,10.23885818,12.01803618
1.318675458,3.348237305,-6.402635651,9.888137512,12.24661993
1.328708458,3.359164581,-7.424560547,9.498946838,12.51551345
1.338741458,3.162623291,-8.438851318,9.260343018,12.92170076
1.348774458,2.73211853,-9.181457062,9.277407532,13.33543835
1.358807458,2.15417038,-9.649384003,9.789193268,13.91328022
1.368840458,1.738634491,-10.03363495,10.32178574,14.4995152
1.378873333,1.379680939,-10.00998413,11.03415436,14.96181353
1.388905333,1.072669373,-9.504185944,11.62617325,15.05483558
1.398938333,0.80502594,-8.651259613,11.91537186,14.74681139
1.408971333,0.59561142,-7.51781662,11.95563812,14.13540246
1.419004333,0.686472473,-6.259533234,11.60850998,13.20645693
1.429037333,0.977167969,-5.315296783,10.88970474,12.15701059
1.439070333,1.396296387,-4.574038239,9.859996033,10.95860352
1.449103333,1.858834534,-4.040996704,8.667425995,9.742134959
1.459136333,2.2547612,-3.773802338,7.778125305,8.934470629
1.469169333,2.557132416,-3.425626373,7.157815247,8.337155471
1.479202333,2.654579773,-2.760559387,6.629863129,7.656537534
1.489234333,2.537223816,-1.986668701,6.329437866,7.102544679
1.499267333,2.245330811,-1.30109436,6.271508331,6.787206622
1.509300333,1.890418854,-0.603993988,6.531667328,6.826504981
1.519333333,1.561702423,-0.036823425,6.885681152,7.060656864
1.529366333,1.08120163,0.283959503,7.288643188,7.37386937
1.539399333,0.631985779,0.253123627,7.461982727,7.492974297
1.549432333,0.224084015,-0.063018951,7.263046417,7.266775646
1.559465333,-0.204025726,-0.480650482,6.949298859,6.968888434
1.569498333,-0.536334686,-1.103056183,6.524182892,6.638474994
1.579531333,-0.80966629,-1.757644958,6.14532074,6.442813228
1.589564333,-1.137783966,-2.39397171,6.169420624,6.714715462
1.599596333,-1.395098877,-3.139571228,6.480324097,7.334698956
1.609629333,-1.508562927,-3.930825806,7.091353455,8.247087209
1.619662333,-1.55152359,-4.673132172,7.876470795,9.288927921
1.629695333,-1.490300903,-5.288951569,8.796906738,10.37205735
1.639728333,-1.331780548,-5.772146759,9.442663879,11.1469825
1.649761333,-1.325493622,-5.710624695,9.767638092,11.39187964
1.659794333,-1.561403046,-5.214107208,10.06387207,11.44143411
1.669827333,-1.745071106,-4.817881165,10.38225998,11.57793481
1.679860333,-1.849254456,-4.774770813,11.01200043,12.14423039
1.689893333,-1.815724182,-5.005141754,11.63500488,12.79537561
1.699925333,-1.788031769,-5.304369507,12.21130646,13.43314553
1.709958333,-1.896406403,-5.374872894,12.653936,13.87831806
1.719991333,-1.987566833,-5.296136627,12.70393204,13.90645082
1.730024333,-2.184108124,-5.050347748,12.7043811,13.84476941
1.740057333,-2.309098206,-4.653672638,12.60977783,13.63800207
1.750090333,-2.255210266,-4.091890869,12.64285904,13.47855441
1.760123333,-2.065404968,-3.52666626,12.80242722,13.43895142
1.770156333,-1.845961304,-3.078198853,13.22380096,13.70225504
1.780189333,-1.709894257,-2.91818161,13.85893021,14.26567449
1.790222333,-1.734892273,-3.245401154,14.68670883,15.14073631
1.800254333,-1.827250214,-3.62141922,15.25552597,15.78558181
1.810287333,-1.870809631,-3.419638824,14.89163269,15.39332916
1.820320333,-2.020648041,-2.815944214,14.05906403,14.47998072
1.830353333,-2.279908905,-2.432441711,13.30912354,13.7203326
1.840386333,-2.567011871,-2.120939484,12.73566605,13.16378076
1.850419333,-2.898722076,-2.040257263,12.73072632,13.2150154
1.860452333,-3.075205078,-2.688259735,13.42543167,14.03302684
1.870485333,-3.12056076,-3.673660583,14.27925613,15.07086054
1.880518333,-3.357518005,-4.3608815,15.06856476,16.04218995
1.890551333,-3.819008331,-4.734654236,15.81446365,16.94399705
1.900584333,-4.372108154,-4.828509064,16.01968689,17.29335703
1.910616333,-4.921615448,-4.515959015,15.38291107,16.77051393
1.920649333,-5.196443939,-3.937861176,14.28494431,15.70252891
1.930682333,-5.261259155,-3.535348206,13.20718552,14.64954894
1.940715333,-5.098697205,-3.478765869,12.36788086,13.82255411
1.950748333,-4.587061157,-3.638034668,11.61913788,13.01079518
1.960781333,-4.075724487,-3.616629181,10.80542999,12.10160543
1.970814333,-3.659140778,-3.276386719,9.948911133,11.09526268
1.980847333,-3.164569244,-2.868934021,9.160949707,10.10783263
1.990880333,-2.720891876,-2.549797668,8.799750824,9.557213784
2.000913333,-2.188748474,-2.350561981,8.655750275,9.232430575
2.010945333,-1.915716248,-2.098635864,8.719966736,9.171262787
2.020978333,-1.325044556,-2.049088898,8.528514862,8.870742592
2.031011333,-0.936752014,-2.292482758,8.808582458,9.150087784
2.041044333,-0.558937683,-2.863545227,9.034612427,9.494025716
2.051077333,-0.15328125,-3.525169373,9.100475464,9.760582355
2.061110333,0.026644592,-4.19592453,9.341174927,10.24031453
2.071143333,0.172740784,-5.041216736,9.587861938,10.8337806
2.081176333,0.268092499,-6.017037506,9.901010742,11.58907363
2.091209333,0.38499939,-7.001091156,9.891430664,12.12451659
2.101242333,0.430504761,-7.70852005,9.665999451,12.37085935
2.111274333,0.386496277,-8.155939636,9.283395081,12.36325827
2.121307333,0.268691254,-8.483458557,8.943152618,12.32968949
2.131340333,0.277223511,-8.687035217,8.583300934,12.21533825
2.141373333,0.373173981,-8.66443222,8.176446991,11.91914132
2.151406333,0.335751801,-8.483458557,7.952063599,11.63258844
2.161439333,0.344433746,-8.20698349,7.885452118,11.38655206
2.171472333,0.402063904,-8.016579437,7.902516632,11.26396779
2.181505333,0.353864136,-7.938591614,8.081394653,11.33381649
2.191538333,0.300574951,-7.827522583,8.239915009,11.36910966
2.201571333,0.26330246,-7.808512115,8.330027618,11.42066328
2.211603333,0.214054871,-8.017926636,8.57791214,11.74365972
2.221636333,0.219743042,-8.411009216,8.919352112,12.26165589
2.231669333,0.315543823,-8.757837982,9.026379547,12.58073216
2.241702333,0.547860718,-9.039552155,9.062753906,12.81199293
2.251735333,0.640667725,-9.15361496,8.809929657,12.72061251
2.261768333,0.605790253,-8.935518494,8.314909058,12.22080952
2.271801333,0.508342896,-8.385113068,7.565267944,11.30494638
2.281834333,0.380658417,-7.633975067,6.836134186,10.25452128
2.291867333,0.374221802,-6.865922241,6.117328949,9.203403916
2.301900333,0.430055695,-6.324049072,5.843248901,8.621026754
2.311932333,0.641715546,-6.344706116,6.613996124,9.187602477
2.321965333,1.021625519,-6.593937836,7.68741394,10.17939428
2.331998333,1.64627655,-6.576424255,8.228538666,10.66153981
2.342031333,2.52509903,-6.417155457,8.241262207,10.7459021
2.352064333,3.142415314,-6.286028137,8.127199402,10.74431449
2.362097333,3.294049988,-6.273304596,8.156538391,10.80436182
2.372130375,3.096161499,-6.547085266,8.583899689,11.23093386
2.382163375,2.600093079,-6.948251038,9.154812469,11.78343192
2.392196375,2.003882904,-7.202871552,9.467961273,12.0639627
2.402229375,1.415456543,-7.334447937,9.620643768,12.18008334
2.412261375,0.998573456,-7.565118256,9.776619415,12.40203412
2.422294375,0.815803528,-7.871231689,9.876761169,12.65591699
2.432327375,0.80622345,-7.984396362,9.78664856,12.65618709
2.442360375,0.796643372,-7.907156982,9.701325989,12.5408731
2.452393375,0.794847107,-7.688761139,9.545500031,12.28272773
2.462426375,0.609831848,-7.07204361,9.121581573,11.55806844
2.472459375,0.229173431,-6.228248291,8.681796112,10.68724384
2.482492375,-0.012723541,-5.448070679,8.263266449,9.897636507
2.492525375,-0.223784638,-4.737348633,7.933801575,9.243254787
2.502558375,-0.384250946,-4.058809662,7.541766815,8.573204264
2.512590375,-0.51133667,-3.47517334,7.159012756,7.97431869
2.522623375,-0.554746399,-2.919828186,6.927144928,7.537803198
2.532656375,-0.55699173,-2.524500275,6.740483093,7.21924191
2.542689375,-0.578397217,-2.242486725,6.760990448,7.146627309
2.552722375,-0.609532471,-2.090402985,6.93388092,7.267738238
2.562755375,-0.685424652,-2.098037109,7.162156219,7.494534567
2.572788375,-0.716410217,-2.258952484,7.468269653,7.835251211
2.582821375,-0.777034149,-2.631078644,7.870932312,8.335342366
2.592854375,-0.801283722,-3.252286835,8.255782013,8.909397393
2.602887375,-0.864302673,-4.044888611,8.643026733,9.581756316
2.612919375,-1.063987427,-4.91203537,9.199719086,10.48308123
2.622952375,-1.276096344,-5.882766724,9.94337265,11.62351177
2.632985375,-1.443448334,-6.953939209,10.72878937,12.86653547
2.643018375,-1.728455658,-7.596403198,11.32470016,13.74560782
2.653051375,-1.974992981,-7.773634644,11.55986115,14.06983946
2.663084375,-2.232457581,-7.561226349,12.02434525,14.37848703
2.673117375,-2.48408432,-7.130272522,12.57624756,14.66879217
2.683150375,-2.67359024,-6.366860046,12.80616943,14.54932875
2.693183375,-2.776276703,-5.582640839,13.13383804,14.53861385
2.703216375,-2.813399506,-4.867877197,13.61029724,14.72588321
2.713248375,-2.880010986,-4.254752197,14.35574707,15.247454
2.723281375,-2.844385071,-3.795357513,14.87666382,15.61442895
2.733314375,-2.87492157,-3.442690887,15.267052,15.91226481
2.743347375,-3.004552002,-3.092868347,15.57271637,16.15867143
2.753380375,-3.13822403,-2.842588806,15.82554062,16.38220062
2.763413375,-3.300935669,-2.921325073,16.05636063,16.65043642
2.773446375,-3.571722565,-2.903362427,15.98301315,16.63260127
2.783479375,-3.934717712,-2.712658997,15.71072937,16.42155716
2.793512375,-4.356839905,-2.688708801,15.88541611,16.69004655
2.803545375,-4.575684814,-3.054098969,16.38298141,17.28197014
2.813577375,-4.609813843,-3.369942169,16.64822983,17.60029688
2.823610375,-4.591701508,-3.526067505,16.8568959,17.82335026
2.833643375,-4.574038239,-3.597918091,16.80675018,17.78577218
2.843676375,-4.629123688,-3.17205368,16.10590759,17.05552609
2.853709375,-4.620441742,-2.292632446,15.04431519,15.90396381
2.863742375,-4.52823349,-1.758543091,14.50304077,15.29495224
2.873775375,-4.414170685,-1.664837952,14.60677505,15.3497383
2.883808375,-4.135599976,-1.780547333,14.9233667,15.58782889
2.893841375,-3.866160278,-2.124232635,15.33680695,15.95860918
2.903874375,-3.695365448,-2.761906586,15.77150299,16.43241189
2.913906375,-3.568429413,-3.496578827,15.93166992,16.69664213
2.923939375,-3.595373383,-4.24741745,15.76761108,16.72079017
2.933972375,-3.844156036,-4.917573853,15.12784149,16.36495208
2.944005375,-4.14907196,-5.253175964,13.95398254,15.47657212
2.954038375,-4.291425934,-5.333109741,12.74868896,14.47022689
2.964071375,-4.314927063,-5.416037292,11.69532944,13.59164398
2.974104375,-4.15850235,-5.407804413,10.74465637,12.72733794
2.984137375,-3.835773468,-5.187163239,9.705068207,11.65367622
2.994170375,-3.417992249,-4.877756653,8.925938416,10.730683
3.004203375,-2.875819702,-4.577780457,8.531658325,10.10027755
3.014235375,-3.871698761,-3.363655243,9.468110962,10.76797813
3.024268375,-7.877368927,-1.636397095,11.72152496,14.21706313
3.034301375,-3.661535797,-7.166347504,7.184759216,10.7881484
3.044334375,2.886746979,-8.479716339,4.032015381,9.823240063
3.054367375,-0.996777191,-6.869664459,7.693850555,10.36248961
3.064400375,-0.786464539,-6.340963898,6.357429657,9.013504394
3.074433375,0.262404327,-6.539900208,6.098168793,8.945770698
3.084466375,1.61588974,-7.54820343,7.597001953,10.83055462
3.094499375,2.525847473,-8.641230469,9.577084351,13.14425023
3.104532375,2.710862732,-9.065747681,10.52416489,14.15254763
3.114564375,2.737507324,-8.377329254,9.829160156,13.2017416
3.124597375,3.46694046,-7.328460388,9.344168701,12.37091333
3.134630375,1.639390869,-7.339237976,8.52177887,11.36541823
3.144663375,1.723665619,-7.33414856,9.636510773,12.23205208
3.154696375,0.963995361,-7.450007629,10.43794418,12.86011584
3.164729375,0.158520355,-6.995702362,10.59287201,12.69542901
3.174762375,-0.53244278,-6.780000916,10.35875885,12.3917631
3.184795375,-1.118324432,-6.927144928,10.10144394,12.29939657
3.194828375,-1.435215454,-7.262297974,9.820178833,12.29783426
3.204860375,-1.358724518,-7.667205963,9.653275909,12.40233508
3.214893375,-0.98165863,-8.126001892,9.409133606,12.47106073
3.224926375,-0.732576599,-8.56848175,9.197922821,12.59195506
3.234959375,-0.624351654,-9.008416901,9.235943756,12.91681258
3.244992375,-0.620459747,-9.280850372,9.206305389,13.08721563
3.255025375,-0.773591309,-9.308243408,9.165590057,13.08624774
3.265058375,-0.664767609,-9.521250458,9.108109589,13.19294457
3.275091375,-0.470471649,-9.591903534,8.425678711,12.77568075
3.285124375,-0.460292816,-9.027577057,7.230414276,11.57531458
3.295157375,-0.476010132,-8.244854736,6.013444977,10.21595496
3.305189375,-0.728085938,-7.327711945,5.141957245,8.981380505
3.315222375,-1.100511475,-6.370901642,4.944966888,8.139546103
3.325255375,-1.356479187,-5.896538086,5.507946167,8.182094363
3.335288375,-1.337917786,-5.926176453,6.524033203,8.914740635
3.345321375,-0.907263336,-5.999224548,7.167245636,9.390592737
3.355354375,-0.00119751,-6.006110229,7.569459229,9.662819182
3.365387375,0.623453522,-6.17810257,7.906558228,10.05342273
3.375421083,0.801433411,-6.45532608,8.332871704,10.57120055
3.385454083,0.951122131,-6.684349823,8.519234161,10.87025835
3.395486083,0.979113922,-6.96786026,8.754095764,11.23138163
3.405519083,0.784668274,-7.39028183,9.002279663,11.67360308
3.415552083,0.728085938,-7.936795349,9.290879517,12.24104864
3.425585083,0.687520294,-8.427474976,9.469907227,12.69543861
3.435618083,0.517922974,-8.622818756,9.443861389,12.79874078
3.445651083,0.406853943,-8.337062988,9.097481689,12.34651054
3.455684083,0.294737091,-7.607629852,8.281678162,11.24940421
3.465717083,-0.032482452,-6.749614105,7.575746155,10.14644152
3.475750083,-0.25042923,-5.941594391,7.309000854,9.422672243
3.485783083,-0.265098724,-5.167853394,7.087461548,8.775482734
3.495815083,-0.295784912,-4.322411499,6.819369049,8.079265072
3.505848083,-0.353864136,-3.454366608,6.703210602,7.549231806
3.515881083,-0.279768219,-2.67598526,6.654711456,7.178046526
3.525914083,-0.201331329,-2.129172363,6.749913483,7.080624357
3.535947083,-0.094303894,-1.74926239,7.283853149,7.491550496
3.545980083,0.154628449,-1.556613007,7.610473938,7.769573191
3.556013083,0.223784638,-1.40991806,8.022417297,8.148443274
3.566046083,0.115559692,-1.393003235,8.615933075,8.728580343
3.576079083,-0.174537048,-1.598525848,9.15241745,9.292604223
3.586112083,-0.601598969,-1.829196167,9.854008484,10.0403866
3.596144083,-0.962648163,-1.950144653,10.21415955,10.44312266
3.606177083,-1.208137665,-2.14129715,10.1604213,10.45365539
3.616210083,-1.196911011,-2.613864441,10.06132736,10.46399501
3.626243083,-0.981958008,-3.16741333,9.984836426,10.5211077
3.636276083,-0.769250336,-3.35347641,9.97151413,10.54839534
3.646309083,-0.906215515,-3.093018036,10.02345612,10.52889641
3.656342083,-1.314716034,-2.575244751,10.5876329,10.97535121
3.666375083,-1.657203827,-2.184108124,11.39535324,11.72052594
3.676408083,-1.918410645,-1.863774261,12.25202179,12.54057382
3.686440083,-2.001487885,-1.445394287,12.82622772,13.06167049
3.696473083,-2.033521271,-0.976419525,13.4263298,13.61451196
3.706506083,-2.024390259,-0.528999939,13.78678024,13.94465153
3.716539083,-2.053130493,-0.159717865,13.92374542,14.07521017
3.726572083,-2.132315826,0.133971405,14.21084839,14.37055778
3.736605083,-2.289488983,0.371527405,14.69673798,14.87863904
3.746638083,-2.451751556,0.48094986,15.19879395,15.40278338
3.756671083,-2.680026855,0.485889587,15.80398544,16.03697567
3.766704083,-2.991080017,0.684676209,16.45573013,16.73936664
3.776737083,-3.276985474,1.02970871,16.6645459,17.01487654
3.786769083,-3.390449524,1.388213196,16.62787216,17.02669717
3.796802083,-3.396287384,1.700763245,16.4575264,16.890161
3.806835083,-3.299887848,1.876348114,16.21218658,16.65067374
3.816868083,-3.056194611,1.946402435,15.88047638,16.28859533
3.826901083,-2.753973083,1.757944336,15.38141418,15.72458706
3.836934083,-2.461032257,0.986748047,15.3387529,15.56623564
3.846967083,-2.212548981,-0.394579468,15.55894501,15.72042734
3.857000083,-2.155667267,-1.202599182,14.92291763,15.12569393
3.867033083,-2.274819489,-0.824635162,13.70864273,13.92055
3.877066083,-2.762804718,-0.109871521,12.95615753,13.24791228
3.887098083,-3.688030701,0.40490799,12.93205765,13.45375917
3.897131083,-4.526886292,0.725840607,13.34519852,14.11077133
3.907164083,-4.964426422,0.478854218,13.84665573,14.71749659
3.917197083,-5.257367249,-0.264649658,14.68042191,15.59566405
3.927230083,-5.425617371,-1.267713776,15.51269119,16.48296121
3.937263083,-5.439987488,-2.24428299,15.55460403,16.63057355
3.947296083,-5.717660065,-2.829715576,15.48320251,16.74599913
3.957329083,-6.012546844,-3.005300446,15.51822968,16.91147547
3.967362083,-6.078409882,-2.838397522,15.65654205,17.03322859
3.977394083,-5.723348236,-2.458637238,15.76581482,16.95177067
3.987427083,-5.395979004,-1.965562592,16.09453125,17.08841601
3.997460083,-5.010081482,-1.690434723,16.37639511,17.20885827
4.007493083,-4.633614349,-1.548230438,15.94753693,16.67906872
4.017526083,-4.375401306,-1.085243225,14.53088287,15.21408711
4.027559083,-4.116739197,-0.600700836,12.75377838,13.41518714
4.037592083,-4.12108017,-0.782422943,11.90249863,12.62002223
4.047625083,-4.159250793,-1.75510025,12.06730591,12.88408382
4.057658083,-4.290527802,-2.62449234,12.37596405,13.35893241
4.067690083,-4.526437225,-3.112178192,12.96169601,14.07763654
4.077723083,-4.519701233,-3.576811981,13.31990112,14.51347819
4.087756083,-4.440815277,-3.803291016,13.6679274,14.86600492
4.097789083,-4.191733246,-4.156556396,13.98451904,15.17940584
4.107822083,-3.849095764,-4.778812408,14.10082718,15.3780985
4.117855083,-3.521726532,-5.580395508,14.29182999,15.74165735
4.127888083,-3.378773804,-6.488706665,14.41831696,16.16809483
4.137921083,-3.373983765,-7.087012482,14.23749298,16.25778948
4.147954083,-3.221151581,-7.442672882,13.59742401,15.83221832
4.157986083,-2.932551727,-7.645650787,12.95046936,15.32222217
4.168019083,-2.568808136,-7.823031921,12.4934697,14.96280016
4.178052083,-1.990111542,-7.975864105,12.06850342,14.60218227
4.188085083,-1.54104538,-7.823031921,11.45867157,13.95979239
4.198118083,-0.951870575,-7.509434052,10.95571747,13.31635846
4.208151083,-0.47151947,-7.122039642,10.55065979,12.73821814
4.218184083,-0.289497986,-6.570287018,10.49856812,12.38839832
4.228217083,-0.151634674,-6.031108246,10.60020676,12.19678823
4.238250083,0.113314362,-5.545667725,10.45934967,11.83914128
4.248283083,0.262554016,-5.013224945,10.26580215,11.42751298
4.258315083,0.300425263,-4.726870422,10.13317795,11.18547516
4.268348083,0.385897522,-4.678520966,9.914782104,10.96997628
4.278381083,0.341589661,-4.17137558,9.311835938,10.20917951
4.288414083,0.029937744,-3.237018585,8.541837158,9.134668446
4.298447083,-0.307310944,-2.342029724,8.051756287,8.391085898
4.308480083,-0.54292099,-1.622176666,7.685767365,7.873832632
4.318513083,-0.629740448,-0.979113922,7.493417358,7.58330672
4.328546083,-0.581989746,-0.440533905,7.42770401,7.463482367
4.338579083,-0.239352264,-0.321531372,7.421566772,7.432383554
4.348611083,0.577499085,-0.676443329,7.251819763,7.306159774
4.358644083,1.577569427,-0.969384155,6.63674881,6.890200701
4.368677083,2.09324707,-0.715811462,5.909561005,6.310069779
4.378709833,2.076332245,0.078137512,5.60359726,5.976417264
4.388742833,1.745969238,1.007854156,5.661227417,6.009465405
4.398775833,1.115779724,1.721270599,6.18858078,6.519683193
4.408808833,0.771944733,1.982776794,7.074738007,7.387775061
4.418841833,1.018631744,1.883982239,7.870183868,8.156395885
4.428874833,1.418600006,1.705253906,8.141120453,8.437900159
4.438907833,1.706301727,1.407373352,7.835306396,8.141510404
4.448939833,1.626068573,1.104403381,7.525301056,7.777786434
4.458972833,1.088386688,1.36785553,7.313491516,7.519492835
4.469005833,0.522862701,2.173480225,7.117848358,7.460641188
4.479038833,0.043110352,2.988535309,7.408843231,7.98900243
4.489071833,-0.355361023,3.49148941,8.028853912,8.762378382
4.499104833,-0.69500473,3.792513428,8.58958786,9.415264695
4.509137833,-0.76520874,4.032913513,8.652008057,9.576386544
4.519170833,-0.701591034,4.181255035,8.275091858,9.297971225
4.529203833,-0.395028534,4.38662796,7.566016388,8.754607723
4.539235833,-0.218395844,4.414320374,6.839277649,8.143073122
4.549268833,-0.347128143,4.305496674,6.313570862,7.649769708
4.559301833,-0.520168304,4.396208038,5.788013763,7.286859646
4.569334833,-0.693507843,4.567601624,5.364544373,7.079708613
4.579367833,-0.742306366,4.659959564,5.218747559,7.035735069
4.589400833,-0.571212158,4.752317505,5.268444214,7.118097318
4.599433833,-0.543070679,4.864284668,5.739065552,7.542749134
4.609466833,-0.613274689,5.009632416,6.026916962,7.861059143
4.619499833,-0.590821381,5.095104675,5.893244934,7.812777829
4.629531833,-0.587079163,5.034480743,5.736221466,7.654730237
4.639564833,-0.874930573,5.006638641,5.389243011,7.407825202
4.649597833,-1.265618134,4.988825684,5.129832458,7.266729114
4.659630833,-1.706152039,5.152136078,4.974904633,7.362413806
4.669663833,-2.146386566,5.436844025,4.333787842,7.276535254
4.679696833,-2.556982727,5.609734497,3.396137695,7.038539127
4.689729833,-2.25595871,5.502257996,4.822222137,7.656240533
4.699762833,-1.758842468,5.724246368,5.367388458,8.041727562
4.709795833,-1.687440948,6.351442108,6.509962463,9.250291081
4.719827833,-1.746717682,6.809639282,7.521708527,10.29554802
4.729860833,-1.935624847,6.85903656,8.452922058,11.05644235
4.739893833,-2.378104706,7.067103882,8.496930542,11.30474095
4.749926833,-2.421664124,7.547305298,7.972421265,11.24214282
4.759959833,-2.000140686,7.435188446,8.07825119,11.15978191
4.769992833,-1.77381134,7.068151703,8.114176483,10.90619251
4.780025833,-1.772015076,6.882986755,8.15429306,10.81702544
4.790058833,-1.873504028,6.836583252,8.197403412,10.8372649
4.800091833,-2.120041351,6.912325745,8.57207428,11.21406617
4.810124833,-2.038011932,7.145391083,9.004075928,11.67405198
4.820156833,-1.763782196,7.371121674,9.409582672,12.08240905
4.830189833,-1.504371643,7.657925262,9.990524597,12.67744198
4.840222833,-1.475332031,8.127349091,10.36968613,13.25748084
4.850255833,-1.448088684,8.585246887,10.19784348,13.40893122
4.860288833,-1.321901093,8.69137619,9.680219879,13.07647122
4.870321833,-1.061891785,8.392747192,9.080267487,12.41036169
4.880354833,-1.244212646,7.134314117,9.165889435,11.68161085
4.890387833,-1.860181732,6.716682587,9.355395355,11.66608432
4.900420833,-2.366428986,7.415429535,9.12667099,11.99519507
4.910453833,-2.421364746,7.942782898,8.8412146,12.12921609
4.920485833,-2.136207733,7.849077759,8.815917206,11.99549087
4.930518833,-1.892215118,7.058721313,9.015452271,11.60536101
4.940551833,-1.880389709,6.056854706,9.166787567,11.1468089
4.950584833,-2.088307343,5.55674469,9.019643555,10.79779649
4.960617833,-2.317181396,5.487139435,8.629704437,10.48569633
4.970650833,-2.438878326,5.555247803,8.085735626,10.10880934
4.980683833,-2.480491791,5.462590485,7.746540985,9.798042231
4.990716833,-2.514022064,5.224585419,7.795938263,9.71561903
5.000749833,-2.450554047,5.129233704,7.863298187,9.702871323
5.010781833,-2.316133575,5.194647675,8.101153564,9.898359878
5.020814833,-2.029030609,5.285059662,8.247249756,10.00329693
5.030847833,-1.858385468,5.202431488,8.324189758,9.990546785
5.040880833,-1.797312469,4.949906616,8.465046844,9.969399465
5.050913833,-1.781744843,4.781207428,8.540789337,9.948851273
5.060946833,-1.702110443,4.919370117,8.37777832,9.863293157
5.070979833,-1.497935028,5.108876038,8.096662903,9.690220528
5.081012833,-1.099613342,5.132676544,7.767198029,9.374587096
5.091045833,-0.553099823,5.065017242,7.370223541,8.959939404
5.101078833,0.069754944,4.929249573,6.904841309,8.484055669
5.111110833,0.541274414,4.742288361,6.398743744,7.982869057
5.121143833,0.736618195,4.556674347,5.883365479,7.477959402
5.131176833,0.843795319,4.518354034,5.441783752,7.123238318
5.141209833,0.972976685,4.58556427,5.081333313,6.913322757
5.151242833,1.103505249,4.589156799,4.872816925,6.783983251
5.161275833,0.989442444,4.615651703,4.843328247,6.76321414
5.171308833,0.683029633,4.736899567,4.874014435,6.830868444
5.181341833,0.32991394,4.90964035,4.989574127,7.007800051
5.191374833,0.060324554,5.054688721,5.105882263,7.184953083
5.201407833,-0.119152222,5.173691254,5.090763702,7.259280509
5.211440833,-0.25042923,5.278024292,5.203628998,7.416064318
5.221472833,-0.332159271,5.405559082,5.326523438,7.596199754
5.231505833,-0.354163513,5.591173096,5.459297333,7.822440524
5.241538833,-0.278421021,5.718109131,5.661077728,8.051216762
5.251571833,-0.150437164,5.90536972,6.030060425,8.441424738
5.261604833,-0.014968872,6.055657196,6.326743469,8.757790307
5.271637833,0.058378601,6.047124939,6.540948029,8.908149595
5.281670833,0.019609222,6.016139374,6.68584671,8.994157199
5.291703833,-0.079335022,5.995332642,6.642287292,8.948200266
5.301736833,-0.066012726,5.859864349,6.374943237,8.659230286
5.311769833,-0.050594788,5.608536987,6.150410156,8.323808747
5.321801833,-0.168399811,5.415288849,6.149362335,8.195631089
5.331834833,-0.359851685,5.402565308,6.404581604,8.386648357
5.341867833,-0.61776535,5.668861542,6.716083832,8.810414703
5.351900833,-0.904269562,6.203250275,6.957082672,9.364775316
5.361933833,-1.185684357,6.723568268,7.163952484,9.896182741
5.371966833,-1.468895416,7.12353653,7.45464798,10.41509496
5.381998833,-1.569635925,7.486381989,7.896978149,10.99417737
5.392031833,-1.479373627,7.904163208,8.266260223,11.53236318
5.402064833,-1.253044281,8.110583954,8.869056702,12.08353669
5.412097833,-0.84125061,7.668403473,9.585915985,12.30454793
5.422129833,-0.612376556,7.056026917,10.3143013,12.51188764
5.432162833,-0.179327087,6.781198425,10.70813232,12.67599732
5.442195833,0.163909149,6.719676361,10.86201233,12.7735754
5.452228833,0.137264557,6.447392578,11.10091553,12.83814777
5.462261833,-0.038170624,6.169570313,11.25195145,12.83243805
5.472294833,-0.279019775,6.158493347,11.19013,12.775911
5.482327833,-0.446671143,6.102360077,10.93027039,12.52633723
5.492360833,-0.499511261,5.636528778,10.7124733,12.11515796
5.502393833,-0.555494843,5.00334549,10.64690964,11.7770423
5.512426833,-0.746347961,4.520449677,10.52895493,11.48261261
5.522458833,-1.224902802,4.250860291,10.58299255,11.47039369
5.532491833,-1.914369049,4.110901337,10.8450975,11.75501844
5.542524833,-2.412982178,4.196074219,11.00331848,12.02092091
5.552557833,-2.407593384,4.555327148,10.91470276,12.06972442
5.562590833,-2.031425629,4.921914825,10.53808594,11.80691284
5.572623833,-1.466650085,5.136568451,9.905351715,11.25395
5.582656833,-0.904868317,5.266198883,8.987161102,10.45565407
5.592689833,-0.594563599,5.500312042,7.90042099,9.644873781
5.602722833,-0.45280838,5.694907379,6.752158813,8.844696384
5.612755833,-0.368234253,5.768105164,5.812562714,8.197104302
5.622787833,-0.497415619,5.791306915,5.097948761,7.731477197
5.632820833,-0.767454071,5.714965668,4.707111511,7.443568843
5.642853833,-1.115330658,5.468727722,4.753065948,7.33093318
5.652886833,-1.53520752,5.400769043,4.826712799,7.40420994
5.662919833,-1.9681073,5.529950409,5.007237396,7.715323986
5.672952833,-2.284549255,5.645360413,5.515580292,8.216500803
5.682985833,-2.210004272,5.753735046,5.893843689,8.52801145
5.693018833,-1.741179199,5.694158936,5.970484314,8.43219034
5.703051833,-1.309027863,5.435197449,6.12885498,8.295648777
5.713084833,-1.160087585,5.223986664,6.212680664,8.19958785
5.723116833,-1.336720276,5.21859787,6.256689148,8.256315396
5.733149833,-1.509011993,5.393434296,6.376589813,8.486880955
5.743182833,-1.463057556,5.472320251,6.548881531,8.658791812
5.753215833,-1.36201767,5.521268463,6.856940918,8.908262251
5.763248833,-1.132544861,5.571563873,7.129973145,9.119292675
5.773281833,-1.076411591,5.674699402,7.390581207,9.379848922
5.783314833,-1.157542877,5.77439209,7.370971985,9.434762187
5.793347833,-1.416803741,5.82932785,7.177574158,9.354462401
5.803380833,-1.843416595,5.988896027,6.846013641,9.280784619
5.813413833,-2.25940155,6.171815643,6.681954803,9.372551611
5.823445833,-2.597698059,6.439758453,6.616690521,9.591617048
5.833478833,-2.671045532,6.813082123,6.637197876,9.879522655
5.843511833,-2.350861359,7.113357697,6.75141037,10.08503589
5.853544833,-2.070943451,7.412286072,7.071295166,10.4515074
5.863577833,-1.902992706,7.722890167,7.371870117,10.84476292
5.873610833,-1.792223053,7.969277802,7.715854797,11.23636362
5.883643833,-1.668879547,8.09696228,7.935298462,11.45927218
5.893676833,-1.48595993,8.111332397,8.141120453,11.58790889
5.903709833,-1.329385529,8.183033295,8.288264465,11.72282507
5.913742833,-1.507664795,7.973469086,8.621022491,11.83939573
5.923774833,-1.847009125,7.903863831,8.99210083,12.11364452
5.933807833,-2.165546722,8.084687805,9.357490997,12.55445767
5.943840833,-2.434836731,8.575816498,9.723928986,13.1919617
5.953873833,-2.240391083,9.259893951,9.651928711,13.56188468
5.963906833,-1.864373016,9.126371613,9.598639526,13.3753664
5.973939833,-2.202819214,7.829318848,10.12763947,12.98921581
5.983972833,-3.125799866,6.924450531,10.57715469,13.02285842
5.994005833,-4.097129974,7.067852325,10.38585251,13.21389204
6.004038833,-4.871320038,7.102729797,10.25532394,13.3921693
6.014071833,-4.929399261,6.644233246,10.26804749,13.18626602
6.024104833,-4.440815277,6.355783081,9.986033936,12.64269325
6.034136833,-3.678450623,6.234834595,9.514664154,11.95545881
6.044169833,-3.350033569,6.11957428,9.138197021,11.49689345
6.054202833,-3.254382477,5.861361237,8.772806854,11.04122733
6.064235833,-3.393443298,5.428311768,8.513246613,10.65163809
6.074268833,-3.711831207,4.995561676,8.521479492,10.55220072
6.084301833,-3.83906662,4.841082916,8.687184906,10.66028601
6.094334833,-3.815565491,4.859195251,8.347990265,10.38553128
6.104367833,-3.860472107,4.632267151,6.910828857,9.171733715
6.114400833,-3.213667145,4.108057251,8.081394653,9.618353832
6.124433833,-2.78241394,4.216581573,7.8817099,9.361770049
6.134465833,-2.683619385,3.614084473,8.571625214,9.681744594
6.144498833,-2.737507324,2.97087204,9.259145508,10.10206922
6.154531833,-2.871029663,3.001707916,9.627080383,10.48492911
6.164564833,-2.737806702,3.648213501,9.671837311,10.69343183
6.174597833,-2.180066528,4.121229858,9.520651703,10.60094498
6.184630833,-1.776954803,4.267176361,8.965306549,10.08677768
6.202905917,-0.390537872,4.484823761,10.51233948,11.43570922
6.212938917,-0.769100647,4.387077026,10.21071671,11.13986967
6.222971917,-1.121318207,4.427492981,10.0661174,11.05381238
6.233004917,-1.651964722,4.388723602,10.66307602,11.6486511
6.243037917,-2.252815247,4.286336517,11.30808472,12.30124535
6.253069917,-2.830613708,4.322710876,12.10098587,13.15796574
6.263102917,-3.216211853,4.511168976,12.97052765,14.10422815
6.273135917,-3.392245789,4.578229523,13.6507132,14.79221038
6.283168917,-3.494932251,4.424948273,13.97643585,15.07101449
6.293201917,-3.441643066,4.139192505,13.82195709,14.83321676
6.303233917,-3.306174774,3.905678101,13.24236237,14.19666419
6.313266917,-3.012485504,3.863166504,12.31998047,13.25824434
6.323299917,-2.595452728,3.730991364,11.33413055,12.21143672
6.333332917,-2.291734314,3.51139801,10.51248917,11.31787925
6.343365917,-2.139949951,3.414100342,9.892029419,10.681185
6.353397917,-2.066003723,3.491339722,9.392069092,10.23077643
6.363430917,-1.956880646,3.641477509,8.99674118,9.901065204
6.373463917,-1.717827759,3.721710663,8.637488251,9.560767006
6.383496917,-1.266815643,3.602408752,8.27479248,9.113416554
6.393529917,-0.926124115,3.554208984,7.81734375,8.637185345
6.403561917,-0.787362671,3.635939026,7.250472565,8.149192904
6.413594917,-0.784219208,3.687282257,6.718778229,7.704091841
6.423627917,-0.883313141,3.727398834,6.288572845,7.363415825
6.433660917,-0.888851624,3.795656891,5.788163452,6.978531693
6.443692917,-0.832418976,3.88232666,5.382656708,6.688675122
6.453725917,-0.782273254,3.991000671,5.0536409,6.486857802
6.463758917,-0.6821315,4.020788727,4.962181091,6.423027834
6.473791917,-0.644260254,3.956272888,5.155129852,6.530124825
6.483824917,-0.64470932,3.971840515,5.382207642,6.720068919
6.493856917,-0.719104614,4.120481415,5.564079437,6.960923683
6.503889917,-0.809217224,4.360282745,5.749244385,7.260902777
6.513922917,-0.887654114,4.577181702,5.919889526,7.535490307
6.523955917,-1.085093536,4.672832794,6.13244751,7.785865833
6.533988917,-1.302142181,4.724176025,6.313121796,7.991803313
6.544020917,-1.381626892,4.769382019,6.21312973,7.953545043
6.554053917,-1.41815094,4.869224396,6.177653503,7.992740526
6.564086917,-1.370250549,5.009333038,6.204447784,8.091117127
6.574119917,-1.218765564,5.109923859,6.205495605,8.130491194
6.584151917,-1.13269455,5.217100983,6.228098602,8.203069658
6.594185167,-1.081051941,5.423072662,6.411167908,8.466490674
6.604218167,-1.050964508,5.729036407,6.836882629,8.981611695
6.614251167,-1.08000412,6.071973267,7.385491791,9.621889484
6.624284167,-1.149160309,6.247857513,7.974067841,10.19519744
6.634316167,-1.207389221,6.205196228,8.680448914,10.73836311
6.644349167,-1.165775757,6.231541443,9.056916046,11.05526436
6.654382167,-1.134640503,6.326593781,9.043294373,11.09479027
6.664415167,-1.143621826,6.307134247,8.944200439,11.0039327
6.674448167,-1.203048248,6.190227356,8.821455688,10.8436304
6.684480167,-1.257385254,6.124813385,8.644224243,10.66850362
6.694513167,-1.279988251,6.125262451,8.40711731,10.48030684
6.704546167,-1.325044556,6.051615601,8.416996765,10.45101091
6.714579167,-1.372196503,6.020779724,8.6328479,10.61408379
6.724611167,-1.371747437,6.184239807,8.920998688,10.9412399
6.734644167,-1.32459549,6.31851059,9.109905853,11.16550554
6.744677167,-1.260379028,6.479276276,9.145681458,11.27887697
6.754710167,-1.046773224,6.603517914,8.973988495,11.19082895
6.764743167,-0.738564148,6.721772003,8.525670776,10.88185453
6.774775167,-0.520916748,6.783443756,7.999514923,10.50136669
6.784808167,-0.504750366,6.673272858,7.526498566,10.07152045
6.794841167,-0.639320526,6.241720276,7.238796844,9.579560663
6.804874167,-0.958456879,5.891448669,7.373516693,9.486651434
6.814906167,-1.48251709,5.758375397,7.845335541,9.844086239
6.824939167,-2.035467224,5.726791077,8.533304901,10.47647629
6.834972167,-2.34951416,5.719456329,9.316027222,11.1812683
6.845005167,-2.367327118,5.614225159,9.899663544,11.62441827
6.855037167,-2.208956451,5.546565857,10.15398468,11.7791038
6.865070167,-1.960622864,5.604944458,9.99726059,11.62775403
6.875103167,-1.810036011,5.570516052,9.597891083,11.24394916
6.885136167,-1.859732666,5.453309784,8.954229584,10.64778947
6.895169167,-2.025587769,5.293741608,8.293054504,10.04497183
6.905201167,-2.328258362,5.034780121,7.860903168,9.620997686
6.915234167,-2.615810394,4.787344666,7.58218277,9.34080449
6.925267167,-2.774181061,4.626279602,7.548802185,9.27809021
6.935300167,-2.710713043,4.50248703,7.745493164,9.360182638
6.945332167,-2.417323151,4.513414307,7.972720642,9.475158804
6.955365167,-2.05462738,4.536316681,8.129145355,9.533240105
6.965398167,-1.70944519,4.403842163,8.220904541,9.481524146
6.975431167,-1.384920044,4.22990387,8.181985474,9.314235157
6.985464167,-1.156644745,4.080813904,7.97646286,9.034092591
6.995496167,-1.065184937,3.919000397,7.645201721,8.656921648
7.005529167,-1.09871521,3.780238953,7.268135834,8.265783698
7.015562167,-1.193168793,3.678300934,6.772815857,7.799011743
7.025595167,-1.299597473,3.553909607,6.350843353,7.392728751
7.035627167,-1.402733002,3.516487427,6.147266693,7.219572805
7.045660167,-1.4040802,3.67171463,6.037395172,7.20437853
7.055693167,-1.298699341,3.885769501,5.948779449,7.223143466
7.065726167,-1.100960541,3.896247711,5.987548828,7.227973527
7.075758167,-0.89633606,3.707340546,6.204896851,7.283442674
7.085791167,-0.74649765,3.617677002,6.353687439,7.349434652
7.095824167,-0.63063858,3.647614746,6.334976349,7.337214982
7.105857167,-0.474662933,3.603755951,6.300997009,7.274264579
7.115890167,-0.305215302,3.535497894,6.27869339,7.212135081
7.125922167,-0.133821716,3.519930267,6.174809418,7.108873939
7.135955167,0.144150238,3.408262482,5.99667984,6.899072513
7.145988167,0.415236511,3.219055939,5.755681,6.60776863
7.156021167,0.604742432,3.082839203,5.439239044,6.281316131
7.166053167,0.694106598,2.949167175,5.070705414,5.906896342
7.176086167,0.712368622,2.739602966,4.635560303,5.431511096
7.186119167,0.722996521,2.489323425,4.11164978,4.860567765
7.196152167,0.874780884,2.115401001,3.621568909,4.284381443
7.206184167,0.956959992,1.791624298,3.346291351,3.914505826
7.216217167,0.933309174,1.542691956,3.175795898,3.65193703
7.226250167,1.025367737,1.219963074,3.562591553,3.902787141
7.236283167,1.328337708,0.8599617,3.891607361,4.201026427
7.246316167,1.638043671,0.482297058,4.188140717,4.522866368
7.256348167,1.837279358,-0.177530823,4.703518982,5.052742171
7.266381167,1.9880159,-1.066083069,4.994962921,5.480729414
7.276414167,2.018253021,-1.778152313,5.16006958,5.819062551
7.286447167,2.079326019,-2.228415985,5.492228851,6.281242891
7.296479167,2.052082672,-2.459685059,5.922284546,6.733093503
7.306512167,2.456840973,-3.199895782,6.490353241,7.641994882
7.316545167,2.938239899,-4.563709717,7.427554321,9.199416464
7.326578167,2.875520325,-6.026617584,8.930878143,11.15120267
7.336610167,2.275567932,-7.070097656,10.66906357,12.99974645
7.346643167,1.483864288,-7.041806488,12.37761063,14.3176163
7.356676167,0.891396332,-6.221512299,14.10277313,15.43988383
7.366709167,1.129551086,-5.836512909,15.1197583,16.24647222
7.376742167,2.434237976,-6.486311646,15.40177185,16.8882305
7.386774167,3.645519104,-7.883206787,16.1722197,18.35689104
7.396807167,4.079766083,-9.178912354,16.50018768,19.31717155
7.406840167,3.965703278,-9.627828827,15.9731337,19.06732521
7.416873167,3.105741577,-9.222172394,15.14011597,17.99770002
7.426905167,1.793420563,-8.854985962,15.03802826,17.5433585
7.436938167,0.49846344,-8.470435638,15.77464645,17.91190153
7.446971167,-0.961300964,-7.69804184,17.07843521,18.75784894
7.457004167,-2.329006805,-6.440656586,18.75569733,19.96703564
7.467036167,-2.568508759,-5.560935974,18.929935,19.89632341
7.477069167,-2.218686218,-5.587580566,18.11697556,19.08843703
7.487102167,-2.081122284,-5.758974152,16.86168594,17.93915567
7.497135167,-2.431842957,-5.850284271,15.94304626,17.15576901
7.507167167,-2.986589355,-5.768703918,15.10568756,16.4432192
7.517200167,-3.450175323,-5.362299042,14.07822418,15.45491368
7.527233167,-3.737427979,-5.046306152,13.33951035,14.74368034
7.537266167,-3.840713196,-4.864883423,13.02067337,14.42068319
7.547299167,-3.872297516,-4.599335632,12.484189,13.8565346
7.557331167,-3.910917206,-4.176614685,11.86747147,13.17483444
7.567364167,-4.102069702,-3.827241211,11.58725418,12.87397416
7.577397167,-4.210743713,-3.554658051,11.33547775,12.60392845
7.587430667,-4.367318115,-3.017874298,11.11827942,12.32059942
7.597462667,-4.123774567,-2.116448822,10.81276474,11.76438497
7.607495667,-3.574866028,-1.413211212,10.63343765,11.30693722
7.617528667,-2.749482422,-1.289568329,10.92054062,11.33493924
7.627561667,-1.872755585,-1.247655487,11.52573212,11.7433538
7.637593667,-2.063009949,-1.122366028,12.09050766,12.3164967
7.647626667,-2.749632111,-0.884959717,12.53074219,12.85935963
7.657659667,-3.645519104,-0.659678192,13.03519318,13.55142967
7.667692667,-4.331392822,-0.702489166,13.24655365,13.95441287
7.677724667,-4.702770538,-0.863703919,12.85691391,13.71722532
7.687757667,-4.872816925,-0.967587891,12.25082428,13.21980585
7.697790667,-4.753814392,-1.092128906,11.89142166,12.8529143
7.707823667,-4.480333099,-1.409319305,11.8046022,12.70465264
7.717856667,-4.3807901,-1.568139038,11.84561691,12.72670507
7.727888667,-4.525090027,-1.383872223,11.87675217,12.784709
7.737921667,-4.601281586,-1.097966766,11.98228271,12.88225222
7.747954667,-4.449946289,-0.883013763,11.86492676,12.70268563
7.757987667,-4.59604248,-0.417032776,11.75924652,12.63239493
7.768019667,-4.997807007,-0.123792572,11.94965057,12.9532833
7.778052667,-5.388045502,0.188907166,12.0846698,13.23276103
7.788085667,-6.024521942,0.922232208,12.23765167,13.67133846
7.798118667,-6.468348999,1.549427948,12.26339813,13.95102862
7.808150667,-6.67417099,1.806892548,12.10128525,13.93737865
7.818183667,-6.586752777,1.880988464,11.60267212,13.47387955
7.828216667,-6.265520782,2.238894196,10.51653076,12.4445497
7.838249667,-5.698200531,2.635569305,9.733509064,11.58261255
7.848281667,-4.943470001,3.04451889,8.652906189,10.42016202
7.858314667,-4.810845795,3.631148987,7.725135498,9.798326321
7.868347667,-5.104834442,3.853586426,7.269632721,9.682821021
7.878380667,-5.323679352,4.215234375,7.194039917,9.89262215
7.888413667,-4.068539429,1.761087799,7.58338028,8.784196024
7.898445667,-3.550915833,-0.170196075,8.659492493,9.360810872
7.908478667,-3.128643951,-1.277293854,7.984845428,8.670504546
7.918511667,-3.586392059,-1.507215729,7.218888245,8.200381378
7.928544667,-5.009931793,-1.394051056,8.02795578,9.565085934
7.938576667,-7.021748199,-1.621577911,9.386081543,11.83355354
7.948609667,-9.778565369,-2.048639832,10.33615585,14.37544377
7.958642667,-10.09680359,-2.619253235,11.37768997,15.43560039
7.968675667,-9.580377502,-2.950214996,11.46780258,15.2314772
7.978707667,-9.675729218,-3.341651001,11.75924652,15.59058197
7.988740667,-9.356143799,-4.057761841,12.60064682,16.21046447
7.998773667,-9.325457611,-4.867877197,13.57227631,17.17169392
8.008806667,-9.648186493,-5.096302185,14.12851959,17.85146673
8.018838667,-9.781708832,-4.861141205,14.24168427,17.94820582
8.028871667,-9.691745911,-4.693938904,14.32296524,17.91955174
8.038904667,-9.28114975,-4.370162201,14.18255722,17.50379923
8.048937667,-8.262218628,-4.179458771,13.63933685,16.48525529
8.058970667,-7.07548645,-4.108506317,12.86739212,15.24834787
8.069002667,-5.886808319,-4.037404175,12.12957642,14.0741525
8.079035667,-4.979245605,-3.887116699,11.57423126,13.18580268
8.089068667,-4.254752197,-3.717070313,10.97008759,12.3394631
8.099101667,-3.537294159,-3.700305176,10.70394104,11.86503528
8.109133667,-2.684966583,-3.480711823,10.33435959,11.23046697
8.119166667,-1.994751892,-3.125051422,10.06312363,10.72433861
8.129199667,-1.545086975,-2.653232574,9.679321747,10.15461503
8.139232667,-1.901645508,-1.041683807,9.085506592,9.340652591
8.149264667,-1.572779388,-0.299826508,8.280780029,8.434147783
8.159297667,-0.305664368,-0.300125885,6.516848145,6.53091234
8.169330667,-0.189954987,0.574654999,6.640640717,6.668164694
8.179363667,0.145796814,1.760638733,6.443800049,6.681591467
8.189395667,0.717757416,2.856659546,6.945406952,7.54416047
8.199428667,1.498084717,2.802023163,8.425529022,9.004728254
8.209461667,3.236569519,1.448388062,9.665101318,10.29501791
8.219494667,5.176086273,-0.284707947,11.28158981,12.41560294
8.229527667,6.787784729,-1.824406128,12.26459564,14.13586876
8.239559667,7.638765106,-3.300935669,12.8464357,15.30613664
8.249592667,6.961124268,-4.623285828,13.12425797,15.55886146
8.259625667,5.664071503,-5.300178223,13.01019516,15.14723649
8.269658667,4.596491547,-5.14839386,12.63327896,14.39560458
8.279690667,4.186194763,-5.125341797,12.38000565,14.03773112
8.289723667,4.846172333,-5.804030457,12.37940689,14.50592537
8.299756667,6.003116455,-7.269483032,12.35485794,15.54108444
8.309789667,6.668632507,-8.784033508,12.13855774,16.40044171
8.319821667,6.267616425,-9.372310181,11.20105728,15.89298267
8.329854667,4.681065674,-8.48315918,10.3129541,14.15038472
8.339887667,2.483934631,-6.22136261,7.926616516,10.37817582
8.349920667,0.964294739,-3.250640259,6.31027771,7.163527847
8.359953667,1.286873932,-1.358724518,5.568121033,5.874193448
8.369985667,1.752555542,-0.746347961,5.697601776,6.007591215
8.380018667,2.318378906,-1.065334625,6.823560333,7.284970435
8.390051667,2.580633545,-1.351240082,7.667056274,8.201784633
8.400084667,2.593207397,-1.06713089,7.830815735,8.3177622
8.410116667,2.50743576,-0.759071503,7.10587326,7.573431087
8.420149667,2.397414551,-0.730331268,5.836512909,6.351839358
8.430182667,2.378703461,-1.086141357,4.571643219,5.266673991
8.440215667,2.244732056,-1.76333313,3.534749451,4.54341495
8.450247667,1.927242279,-2.319426727,2.475252686,3.901394495
8.460280667,1.61828476,-2.505489807,1.415905609,3.301683424
8.470313667,1.486109619,-2.327060852,0.3264711,2.780344833
8.480346667,1.324445801,-2.076182556,-0.499211884,2.512748135
8.490379667,1.037342834,-1.985171814,-0.830473023,2.388864318
8.500411667,0.724942474,-2.200124817,-0.842148743,2.464813442
8.510444667,0.514480133,-2.508932648,-0.743354187,2.666834882
8.520477667,0.347277832,-2.97431488,-0.654888153,3.06529434
8.530510667,0.001796265,-3.513942719,-0.27378067,3.524592531
8.540542667,-0.242645416,-3.756588135,0.440234528,3.79007093
8.550575667,-0.03861969,-3.880231018,1.041983185,4.017886657
8.560608667,0.464184723,-3.760030975,1.260528717,3.9927726
8.570641667,0.597707062,-4.612807617,2.163002014,5.129700338
8.580673667,0.161963196,-7.307653656,3.61558136,8.154781579
8.5907065,-1.308728485,-11.69832321,5.163512421,12.85400314
8.6007395,-2.560275879,-15.23352173,5.382207642,16.3579753
8.6107725,-3.73144043,-14.86962845,5.65973053,16.34203315
8.6208055,-3.599564667,-11.79157928,6.282734985,13.83730345
8.6308375,-1.970801697,-10.3607048,9.986782379,14.52460277
8.6408705,-0.149838409,-11.26018433,15.82104996,19.41957323
8.6509035,1.015338593,-12.58822266,23.04966797,26.28272162
8.6609365,1.776954803,-12.65378632,29.98025574,32.58974702
8.6709685,2.119592285,-12.04305634,34.01706116,36.14814417
8.6810015,5.05004837,-12.32282455,36.42974396,38.78764286
8.6910345,10.36130356,-28.51106094,48.88983307,57.53653609
8.7010675,-7.071594543,-41.95490433,56.70283585,70.89028875
8.7110995,2.449057159,19.95200958,-17.84319489,26.87861922
8.7211325,16.18165009,17.41523483,-7.444768524,24.91105743
8.7311655,1.841620331,-7.554490356,8.428822174,11.46764724
8.7411985,-0.693807221,-20.50989944,21.84991287,29.97592428
8.7512315,3.025059357,-16.93757813,19.50039871,26.00573181
8.7612635,1.844165039,-6.317911835,15.13457748,16.50370838
8.7712965,0.113014984,-1.867366791,12.72593628,12.8627091
8.7813295,-0.245938568,-2.853216705,13.74007736,14.03535027
8.7913625,0.359402618,-2.24308548,11.46870071,11.69152252
8.8013945,2.358196106,-1.040336609,7.851023712,8.263290051
8.8114275,1.688339081,0.394878845,4.036955109,4.393566285
8.8214605,0.192200317,0.267643433,-0.367036743,0.4932443
8.8314935,0.280366974,-1.447040863,-0.263452148,1.497310901
8.8415265,1.599124603,-2.711012421,2.026485901,3.74345201
8.8515585,3.749103699,-3.431314545,4.565955048,6.832103889
8.8615915,5.005291443,-2.392025757,6.197113037,8.31738779
8.8716245,4.972659302,-0.416733398,7.562573547,9.060547771
8.8816575,4.069886627,1.027164001,8.956175537,9.891012248
8.8916895,2.710413666,2.203118591,8.588540039,9.271628431
8.9017225,1.602567444,3.387904816,8.907077637,9.663444183
8.9117555,1.545086975,3.567082214,9.552685089,10.31334871
8.9217885,1.314716034,3.029999084,9.643546143,10.19349572
8.9318215,0.637224884,2.853965149,9.831854553,10.25751123
8.9418535,0.476758575,2.790796509,10.00684067,10.39964923
8.9518865,0.815204773,2.035766602,11.00511475,11.22147294
8.9619195,1.990111542,1.376986542,12.75811935,12.98561686
8.9719525,1.226399689,2.887645111,14.8238237,15.15217145
8.9819845,-2.077829132,6.025120697,16.6392485,17.81808194
8.9920175,-4.671635284,9.028475189,16.35573807,19.25740658
9.0020505,-5.859564972,10.75423645,16.52728134,20.57034593
9.0120835,-5.876479797,11.31991013,17.24923004,21.45248976
9.0221155,-4.888534241,12.12553482,17.84334457,22.12038217
9.0321485,-3.630101166,13.37034622,18.86931107,23.40928646
9.0421815,-2.228266296,13.98811157,19.10252609,23.78106262
9.0522145,-1.41934845,13.6134407,17.70428375,22.37815857
9.0622475,-0.905916138,12.78551239,14.91977417,19.66951124
9.0722795,-0.669707336,11.56944122,11.59219391,16.39144404
9.0823125,-0.981808319,9.97375946,8.568332062,13.18545182
9.0923455,-2.078427887,8.583001556,6.548282776,10.99398861
9.1023785,-3.609593811,7.131320343,5.21620285,9.544300367
9.1124105,-5.012177124,5.583538971,3.801045685,8.411050782
9.1224435,-5.869594116,4.492757263,2.232158203,7.721368607
9.1324765,-5.998476105,4.389771423,0.59201889,7.456694649
9.1425095,-5.284760284,4.981790314,-0.771944733,7.303617231
9.1525425,-3.888912964,5.1916539,-1.318907318,6.619398067
9.1625745,-2.229314117,4.322112122,-0.817450104,4.931401352
9.1726075,-0.991388397,2.865640869,0.001047821,3.032284558
9.1826405,-0.324824524,1.302142181,0.565074921,1.45615758
9.1926735,-0.053887939,-0.082927551,1.303339691,1.307086546
9.2027055,-0.204474793,-1.274150391,2.038610687,2.41271687
9.2127385,-1.092428284,-2.264341278,3.47517334,4.289227287
9.2227715,-1.706451416,-2.478096771,4.811294861,5.674636401
9.2328045,-1.47084137,-2.20910614,4.830754395,5.511779413
9.2428375,-1.025367737,-2.059567108,4.39366333,4.959583967
9.2528695,-0.963396606,-2.107168121,3.957620087,4.585961978
9.2629025,-1.485510864,-2.468367004,3.570225677,4.587601725
9.2729355,-2.096240845,-2.891836395,3.279530182,4.848944383
9.2829685,-2.192341003,-3.074606323,3.165617065,4.927544472
9.2930015,-1.759590912,-3.250939636,3.568429413,5.137942893
9.3030335,-1.183738403,-3.481160889,4.662504272,5.937900625
9.3130665,-0.811462555,-3.825295258,5.780529327,6.97895942
9.3230995,-0.893192596,-3.96779892,6.73853714,7.870775315
9.3331325,-0.94303894,-3.974085846,7.735913086,8.747973024
9.3431645,-1.096769257,-4.181704102,8.491242371,9.528417969
9.3531975,-1.433868256,-4.193230133,9.464967499,10.45106535
9.3632305,-1.140328674,-3.532653809,10.36534515,11.01001238
9.3732635,0.481847992,-2.146985321,10.48135391,10.70983209
9.3832965,3.026855621,-0.22228775,9.33264267,9.813739654
9.3933285,4.701872406,1.758393402,8.236322479,9.645546094
9.4033615,4.461322632,2.630629578,7.894283752,9.441574422
9.4133945,2.708617401,1.208886108,9.071884918,9.544480594
9.4234275,1.731150055,-1.885628815,11.28398483,11.57068668
9.4334595,1.376537476,-4.784051514,12.8491301,13.77977317
9.4434925,0.584684143,-6.534511414,13.60086685,15.10050576
9.4535255,-0.054786072,-7.212152252,13.45252533,15.26396342
9.4635585,-0.35221756,-7.280859375,12.27013412,14.27204127
9.4735915,-0.323477325,-7.026687927,11.72077652,13.6695129
9.4836235,-0.003592529,-6.177054749,11.31976044,12.89546411
9.4936565,0.302820282,-4.712350616,11.26527374,12.21492288
9.5036895,0.831221466,-3.707190857,11.86732178,12.4606388
9.5137225,1.157542877,-3.78637619,12.30620911,12.92746428
9.5237555,0.973425751,-4.59604248,12.88924667,13.71874061
9.5337875,0.308658142,-5.840554504,13.22649536,14.4619337
9.5438205,1.251846771,-6.604565735,11.09777206,12.97489706
9.5538535,2.949167175,-5.451214142,6.501130829,8.982094672
9.5638865,1.907483368,-2.17048645,3.9853125,4.92262328
9.5739195,0.374970245,-0.65878006,1.210083618,1.427899231
9.5839515,-0.262703705,-0.504600678,0.373473358,0.680527317
9.593984625,-4.237537994,-5.9733284,-22.84504349,23.99027704
9.604017625,-46.620103,-42.51354263,45.70281052,77.90752338
9.614050625,-22.55988647,-27.14694763,35.09257462,49.77342701
9.624082625,1.765428772,-6.779102783,-32.55505142,33.30021541
9.634115625,-0.399070129,-9.383836212,-10.03198837,13.74250449
9.644148625,0.1977388,-7.669301605,-18.87335266,20.37303925
9.654181625,0.212258606,-2.855611725,-14.32101929,14.60449128
9.664214625,6.605014801,-2.248025208,-0.778980103,7.02044499
9.674246625,6.667285309,-5.191504211,-5.278173981,9.963108448
9.684279625,4.167333984,-1.009949799,2.28050766,4.856684705
9.694312625,2.850971375,-1.416654053,0.14504837,3.1868457
9.704345625,6.708449707,2.603236542,-2.477498016,7.610396467
9.714377625,6.632407837,7.940088501,-7.740852814,12.92109289
9.724410625,-0.206720123,-1.515149231,-0.918939056,1.784057003
9.734443625,-1.555565186,-0.465831299,-0.239501953,1.641384486
9.744476625,-8.148006134,-0.620908814,20.17788986,21.76976736
9.754509625,-16.37160507,-14.40738968,57.89151398,61.86299153
9.764541625,4.044140167,-1.21337677,-6.017636261,7.351142704
9.774574625,0.420924683,0.628093872,0.488134918,0.89997511
9.784607625,1.728755035,-1.09287735,0.901425476,2.235071087
9.794640625,1.557960205,-1.393152924,0.240699463,2.103818267
9.804673625,2.516417084,-0.212408295,-3.017574921,3.934873648
9.814705625,2.551743622,6.203100586,-2.455044708,7.142625351
9.824738625,-5.893394623,1.273551636,27.93730408,28.58053521
9.834771625,5.557044067,-8.163873138,28.3351767,30.00686258
9.844804625,3.95133316,-2.03247345,5.673950958,7.206781636
9.854836625,-0.954714661,-0.328267365,9.412426758,9.466415215
