Time (s),Linear Acceleration x (m/s^2),Linear Acceleration y (m/s^2),Linear Acceleration z (m/s^2),Absolute acceleration (m/s^2)
0.01124225,-0.661472995,0.215653792,0.880670199,1.122333765
0.02127425,-0.761540782,0.283339991,0.923807448,1.230303261
0.03130625,-0.79952064,0.311568009,0.753742935,1.14211921
0.04133825,-0.608464769,0.310550301,0.417143288,0.800424505
0.05137025,-0.31892673,0.233619947,0.114739913,0.411652506
0.06140225,-0.146199395,0.201429563,-0.062245365,0.256559188
0.07143425,-0.168878552,0.265052239,-0.037888788,0.316556811
0.08146625,-0.37032054,0.385646676,0.26866845,0.598367276
0.09149825,-0.534552455,0.455924361,0.587731712,0.915992312
0.10153125,-0.567195413,0.41742951,0.658839701,0.964379482
0.11156325,-0.457668732,0.253503696,0.405994402,0.662235794
0.12159525,-0.155634279,0.009116102,-0.060907522,0.167376397
0.13162725,0.149713864,-0.142458054,-0.54124167,0.579354022
0.14165925,0.521479396,-0.216836099,-0.957911918,1.11200445
0.15169125,1.28437527,-0.62191892,-1.127793998,1.818879402
0.16172325,1.462093058,-0.510618632,-1.363830307,2.063608636
0.17175525,1.094618504,-0.040756847,-1.43049909,1.801715415
0.18178825,0.788506533,0.290617435,-1.28448476,1.534959981
0.19182025,0.579982251,0.427302533,-1.026165882,1.253787575
0.20185225,0.451352862,0.394823881,-0.592958538,0.843329788
0.21188425,0.483136718,0.156469737,-0.143367296,0.527691244
0.22191625,0.458593725,-0.187194224,0.04488732,0.497357772
0.23194825,0.555007696,-0.532655618,0.093837871,0.774958771
0.24198025,0.614934202,-0.685757359,0.066965237,0.923521289
0.25201225,0.441221684,-0.615161293,-0.288605116,0.810180784
0.26204525,0.535924723,-0.423344553,-0.911206114,1.138741631
0.27207725,1.407512516,0.062121696,-0.700402295,1.573376612
0.28210925,0.538983036,-0.065234754,-1.687284243,1.772480297
0.29214125,0.545204839,-0.182874301,-1.98385619,2.06552093
0.30217325,0.932882692,-0.033345794,-1.980809791,2.189746444
0.31220525,0.673667948,0.068410084,-1.88845302,2.006181261
0.32223725,0.792581165,-0.000433279,-1.520348575,1.714539262
0.33226925,0.988249173,-0.052412102,-0.741441563,1.236575533
0.34230125,0.237845364,-0.459401701,-0.759652131,0.919071107
0.35233425,-0.356138849,-0.818974034,-0.884743955,1.257109865
0.36236625,-0.009974984,-0.687279535,-0.679519549,0.966539951
0.37239825,-0.058225477,-0.562384324,-0.886932567,1.051815437
0.38243025,-0.562917956,-0.24519451,-0.591878557,0.852828939
0.39246225,-6.323619887,2.246850502,8.407192154,10.75720157
0.40249425,-9.723666446,4.562786734,11.09792292,15.4445008
0.41252625,-2.597678763,1.564297564,-2.1327187,3.707216055
0.42255825,3.222051467,0.017787522,-2.897638587,4.333386832
0.43259025,1.124699505,0.195707185,-3.254558478,3.44897103
0.44262325,-0.683430459,-0.559709662,-4.50513231,4.590922482
0.45265525,2.151150293,0.834096396,-2.576657438,3.458659846
0.4626875,2.025643171,2.963230606,-0.658192415,3.64927159
0.4727195,0.479229609,2.217710172,-1.819944702,2.908624786
0.4827515,-0.012567421,0.958676003,-2.322141005,2.512281128
0.4927835,-0.534424986,-0.224738465,-1.271241986,1.397202071
0.5028155,-1.088282462,-0.626611311,-0.430414714,1.327500387
0.5128475,-0.754323271,-1.136581779,0.187455887,1.376939158
0.5228795,-0.814216301,-1.086207139,-0.853314001,1.603414768
0.5329125,-0.4645683,0.066621713,-1.090861815,1.18753596
0.5429445,-0.432495153,0.486618443,-1.598861479,1.726327777
0.5529765,-0.471238219,0.066505354,-3.221025281,3.255993287
0.5630085,-0.759346322,0.402438126,-3.096632785,3.213673581
0.5730405,-0.873726631,0.214753613,-3.139057258,3.265455222
0.5830725,-0.679672161,-0.298243666,-3.717003654,3.790385165
0.5931045,-0.450120123,-0.173588338,-3.792637389,3.823197536
0.6031365,-0.088146484,-0.08759129,-3.499946238,3.502151583
0.6131685,0.117073537,-0.319153017,-3.196535972,3.214561725
0.6232015,0.309233801,-0.449935205,-2.974218986,3.023912335
0.6332335,0.487073064,-0.411845857,-2.828110515,2.899149232
0.6432655,0.527970829,-0.636682116,-3.116546062,3.224434318
0.6532975,0.498347957,-1.237874703,-3.260805643,3.523285102
0.6633295,0.216707752,-1.934951979,-2.90824836,3.499844273
0.6733615,-0.092147733,-2.456756481,-3.279276413,4.098511608
0.6833935,0.094315588,-2.623697996,-4.373760577,5.101222225
0.6934255,-1.328232458,-1.843337658,-3.8693283,4.487069943
0.7034575,-2.459287448,-1.596536041,-3.931263762,4.904269247
0.7134905,-2.691646442,-2.370311537,-4.878118011,6.054698397
0.7235225,-3.427445442,-3.136888818,-6.244899992,7.783715669
0.7335545,-3.965993884,-3.294488237,-6.597278935,8.372983314
0.7435865,-4.010992302,-3.664510276,-6.698643926,8.624878275
0.7536185,-4.115180914,-3.792223406,-6.111904487,8.28679967
0.7636505,-3.647442838,-3.981351011,-5.871017329,7.976455328
0.7736825,-3.211887252,-4.240934934,-6.103100919,8.096270108
0.7837145,-2.578201688,-5.133408031,-6.1796667,8.437255625
0.7937465,-2.093250579,-5.422963319,-4.84255583,7.565750202
0.8037795,-1.814060649,-6.064209334,-3.95423104,7.463336653
0.8138115,-1.642705071,-6.912235698,-3.49911418,7.919676908
0.8238435,-1.769048198,-7.459995843,-2.877870321,8.189212849
0.8338755,-1.568250135,-8.211447254,-2.296884249,8.669656957
0.8439075,-1.217120157,-8.651078349,-2.677324272,9.137319265
0.8539395,-0.697271111,-8.717956463,-3.753482971,9.517225767
0.8639715,-0.309658601,-8.520749175,-4.307886138,9.552849728
0.8740035,-1.207945291,-7.751485975,-4.505795092,9.046925227
0.8840355,-1.229391709,-8.063476446,-4.655218934,9.391598356
0.8940675,4.351220731,-10.95786223,-3.870141647,12.40910403
0.9041005,1.924389423,-10.06217053,-0.216637732,10.24682792
0.9141325,1.380304252,-10.67132644,-0.202652215,10.76213342
0.9241645,2.417800868,-11.5909812,-2.14537222,12.03325509
0.9341965,3.71271706,-11.71700156,-0.708700663,12.3115657
0.9442285,4.098122247,-12.19430743,0.201352891,12.86609042
0.9542605,7.352841523,-13.64512326,1.605485789,15.58304373
0.9642925,7.729920859,-13.46612712,3.620531028,15.94354105
0.9743245,8.777706821,-13.63350133,4.257883966,16.76454805
0.9843565,9.720116016,-13.02246262,4.751171451,16.93041105
0.9943895,9.899013333,-11.87888289,5.414612911,16.38341713
1.0044215,9.73646834,-10.60586686,5.828229743,15.53227252
1.0144535,9.262881294,-9.187129446,6.075502646,14.39152701
1.0244855,9.021050979,-8.335027573,6.601085472,13.94368584
1.0345175,8.898175836,-7.573450538,7.290575109,13.7726966
1.0445495,8.832491139,-6.831627152,8.183017507,13.84361964
1.0545815,8.918446963,-6.378208323,9.043621817,14.21292838
1.0646135,8.992389098,-5.701873167,9.489127024,14.26246651
1.0746455,9.040735631,-4.69795711,9.491831946,13.92481869
1.0846785,8.788615386,-4.288004143,9.021072614,13.30437864
1.0947105,8.348732861,-4.095093389,8.179534321,12.3845029
1.1047425,8.161335447,-3.554593731,7.885302429,11.8920363
1.1147745,7.866606542,-3.103082848,7.763245311,11.47957314
1.1248065,7.704426414,-2.870815655,7.561156182,11.17008736
1.1348385,7.489441252,-2.755654158,7.326696868,10.83355192
1.1448705,7.354054821,-2.650885502,7.35345782,10.7323184
1.1549025,7.361750341,-2.637096013,7.45508886,10.804073
1.1649345,7.187781057,-2.864931602,7.957944728,11.09959071
1.1749675,7.317402719,-2.898170099,8.567652031,11.63393458
1.1849995,7.625372059,-2.517026364,9.280147537,12.27203565
1.1950315,7.990998453,-2.006053975,9.966314785,12.93088316
1.2050635,8.386984177,-1.391178319,10.50482697,13.51400276
1.2150955,8.701021757,-0.735013134,10.61830389,13.7475962
1.2251275,9.126826526,-0.044797273,10.59519218,13.98424351
1.2351595,9.565977564,0.703679659,10.52513085,14.24013593
1.2451915,10.1674859,1.144428742,10.32418426,14.53534545
1.2552235,11.03465488,1.165775172,10.24340615,15.10132476
1.2652565,11.74686095,1.190245185,10.21042551,15.60955524
1.2752885,12.48342886,1.2039265,10.14173593,16.12886365
1.2853205,13.28971312,1.131878278,10.0663548,16.71015027
1.2953525,13.84869641,1.279610521,10.15363385,17.21975829
1.3053845,14.2021641,1.505576169,10.07527648,17.47796959
1.3154165,14.43869099,1.659545637,9.623267999,17.43092586
1.3254485,14.32765939,2.011221744,9.02470432,17.05204165
1.3354805,14.14151211,2.314134412,8.585328164,16.70465332
1.3455125,13.88711496,2.465301309,7.923581226,16.17754035
1.3555455,13.33043781,2.490948367,7.305780208,15.40388978
1.3655775,12.64600016,2.244213992,6.776049952,14.52145549
1.3756095,11.96354824,1.700053393,6.194037402,13.57876162
1.3856415,11.24934593,1.107790673,5.780935124,12.69622758
1.3956735,10.61749697,0.423552421,5.421993851,11.92931917
1.4057055,10.20125474,-0.616512877,4.902623107,11.3349636
1.4157375,9.703319305,-1.432819265,4.830450339,10.93346363
1.4257695,9.341233984,-2.31321523,4.521971707,10.63286627
1.4358025,8.963945317,-3.197991929,4.27653863,10.43399495
1.4458345,8.533193219,-3.963543901,4.109660265,10.26715025
1.4558665,7.968599524,-4.542317678,3.915566912,9.973108468
1.465898,7.295777961,-4.977544066,3.459134427,9.485248124
1.47593,6.635570011,-4.973029431,3.249363519,8.906187421
1.485962,5.969763352,-4.886937366,2.901706495,8.242580414
1.495994,5.335621705,-4.7947794,2.582784443,7.62427334
1.506026,4.882975585,-4.621038743,2.363959268,7.126412355
1.516058,4.447444558,-4.586420887,1.752481867,6.624666961
1.526091,4.114400895,-4.685960963,1.33818588,6.377873182
1.536123,3.843294742,-5.114002876,0.908826005,6.461416609
1.546155,3.541410599,-5.79679862,0.580640355,6.817742038
1.556187,3.250466596,-6.540942181,0.415837897,7.315899047
1.566219,2.935362484,-7.356427621,0.240969312,7.924105404
1.576251,2.570364665,-8.08812246,0.329845382,8.493132367
1.586283,2.254741319,-8.841374229,0.537738603,9.140181589
1.596315,1.874492208,-9.460742301,0.738920097,9.672919354
1.606347,1.48222239,-10.04243618,0.770946905,10.18046496
1.61638,1.129196745,-10.30278229,1.248299558,10.43938024
1.626412,0.878681561,-10.67151706,1.842934493,10.86507088
1.636444,1.035455353,-11.47607054,2.088216418,11.71038047
1.646476,0.857837407,-11.98740721,2.54542015,12.28466444
1.656508,0.718642684,-12.4232844,3.083492629,12.82038881
1.66654,0.367363603,-12.77090137,3.63188749,13.28237496
1.676572,-0.234733549,-12.85895108,4.171892474,13.52081394
1.686604,-0.68573397,-12.82988691,4.642874585,13.66135109
1.696637,-0.874574477,-12.76445891,4.985340158,13.73134765
1.706669,-1.127817972,-12.67271492,5.215523404,13.75032222
1.716701,-1.749721397,-12.52714381,5.371721245,13.74213397
1.726733,-2.772122841,-12.12676157,5.483870257,13.59469912
1.736765,-4.182687603,-11.6305493,5.626270423,13.58011309
1.746797,-5.716543831,-10.95857442,5.820369331,13.66184196
1.756829,-7.098449636,-10.15245505,5.911013453,13.72590291
1.766861,-8.359777667,-9.417143707,5.831630484,13.87718964
1.776894,-9.458985212,-8.895665041,5.838696259,14.23712161
1.786926,-10.34890746,-8.561738157,6.005926627,14.71306904
1.796958,-10.58302179,-8.512482966,6.080001494,14.88049511
1.80699,-10.13485025,-8.709901339,6.198987654,14.73109021
1.817022,-9.280367392,-9.142280132,6.550259135,14.5812345
1.827054,-8.406697479,-9.621527283,6.860469713,14.50215137
1.837086,-7.622312211,-10.37115144,6.878054629,14.59342527
1.847118,-7.268165655,-11.09534664,6.857059032,14.93158423
1.85715,-7.217590747,-11.37492892,6.509731498,14.96192595
1.867183,-7.199094835,-11.23175516,5.799681882,14.54701345
1.877215,-7.31085793,-10.55173802,5.085746791,13.80770217
1.887247,-7.584115275,-9.634376539,4.451408093,13.04434934
1.897279,-7.78379652,-8.920213407,3.977756728,12.4892051
1.907311,-7.810540515,-8.449005593,3.504733939,12.02802555
1.917343,-7.641672342,-8.227261049,3.142001916,11.65998099
1.927375,-7.280006851,-8.206567168,2.846326931,11.33348232
1.937407,-6.687358215,-8.395890071,2.534066904,11.0287454
1.94744,-6.034327138,-8.60796332,2.373226374,10.77693555
1.957472,-5.541719685,-8.569848245,2.446562737,10.4946951
1.967504,-4.990127274,-8.347534767,2.530454494,10.04917444
1.977536,-4.314204347,-7.949583794,2.367390853,9.349480258
1.987568,-3.582890162,-7.323203741,2.147277682,8.430730478
1.9976,-2.756823016,-6.874559163,1.8187852,7.626769725
2.007632,-1.903864526,-6.504701723,1.500898105,6.941796581
2.017664,-1.209110057,-6.159876214,1.012324353,6.358523625
2.027697,-0.483715008,-5.925451398,0.578579942,5.97324947
2.037729,0.234503753,-5.714906026,0.198784282,5.723168536
2.047761,0.71061972,-5.581211194,0.007737036,5.626273957
2.057793,1.131112878,-5.699045454,0.148141255,5.812097836
2.067825,1.477862121,-5.978265789,0.362126836,6.168863277
2.077857,2.016797065,-6.409530103,0.569948283,6.743469996
2.087889,2.625405675,-6.744424117,0.798943082,7.281368118
2.097921,3.272860263,-6.871267181,1.249968646,7.712869025
2.107953,4.080563935,-6.867578757,1.497903161,8.127629045
2.117986,4.930043625,-6.638543905,1.392965813,8.385460576
2.128018,5.758929713,-6.191651738,1.002467409,8.515090345
2.13805,6.123305973,-5.354823961,0.220366648,8.137418335
2.148082,8.666292804,-4.790718509,0.099934763,9.902807772
2.158114,8.7816151,-3.570879396,0.125133046,9.480696267
2.168146,9.527045633,-3.331979122,-0.876091537,10.13085484
2.178178,10.30699111,-2.764834871,-0.224406781,10.67374049
2.18821,11.17916297,-2.731138537,0.123494364,11.50860779
2.198243,11.72040698,-2.660174974,0.31946789,12.02275053
2.208275,13.38736396,-2.515920655,1.531966993,13.70759984
2.218307,13.79734499,-2.021294743,2.135915665,14.1072498
2.228339,15.03164076,-1.718328865,2.654666604,15.36066837
2.238371,16.36074796,-0.984960553,3.594606813,16.77991118
2.248403,17.67917113,-0.081258171,4.099681992,18.14847341
2.258435,18.67336385,0.783847325,4.677695631,19.26628585
2.268467,19.25979514,1.38047616,4.888628089,19.91843638
2.2785,19.6326487,1.270750235,4.532235324,20.18902816
2.288532,19.94551683,0.778179619,4.022871505,20.36204068
2.298564,19.4311747,0.361211162,2.976838539,19.66119506
2.308596,20.8651903,-0.504757383,2.695644476,21.04465361
2.318628,20.82266701,-0.722030561,3.254727463,21.08786477
2.32866,20.40387305,-1.089784757,2.458729039,20.58035507
2.338692,19.91418511,-0.901341861,1.962287566,20.03092006
2.348724,19.2279898,-0.467036995,2.37036767,19.37917331
2.358757,18.30375901,-0.473142657,2.320709022,18.45635794
2.368789,17.18910078,-0.284925463,2.453920289,17.36571603
2.378821,16.24337446,-0.169758704,2.381921183,16.41796518
2.388853,15.41963042,-0.113117895,2.11008442,15.56374807
2.398885,14.8357146,-0.274606882,1.779497465,14.94457921
2.408917,14.42163116,-0.617531462,1.316961365,14.49479829
2.418949,14.20406562,-1.144645674,0.870096387,14.27665092
2.428981,14.22525242,-1.726376973,0.552563341,14.3402758
2.439014,14.34993845,-2.295052024,0.479491272,14.54021695
2.449046,14.25876515,-2.748140486,0.845879266,14.54579566
2.45907875,13.86473181,-3.165773186,1.455096864,14.2958111
2.46911075,13.21587916,-3.681468371,2.079380983,13.87575211
2.47914275,12.48504152,-4.455129846,2.907708077,13.57126412
2.48917475,11.64337459,-5.2558727,3.794415235,13.32628818
2.49920675,10.85109441,-6.190044338,4.276594471,13.20424776
2.50923875,10.16110425,-7.247486392,4.413282493,13.23824614
2.51927175,9.736630892,-8.563732057,4.419858856,13.69943941
2.52930375,9.39798355,-10.07885381,4.398507164,14.46555406
2.53933575,9.345097239,-11.50669007,4.358319835,15.45088058
2.54936775,9.564418112,-12.81052678,3.980141807,16.47510907
2.55939975,9.679580194,-13.80684555,3.724644211,17.26835925
2.56943175,9.599193258,-14.65256577,3.674511938,17.89816283
2.57946375,9.39438225,-15.45736835,3.993126134,18.5237607
2.58949575,9.180009876,-16.22776824,4.545388636,19.190456
2.59952875,8.805147804,-16.90563128,5.116411344,19.7359738
2.60956075,8.627524595,-17.90565835,5.681409082,20.67184536
2.61959275,8.698231466,-19.22250628,6.080031899,21.95747632
2.62962475,8.606000994,-20.23743323,6.444404066,22.91609261
2.63965675,8.35945607,-20.91109094,6.822561629,23.53086436
2.64968875,8.013009127,-21.40243481,7.284134985,23.98606166
2.65972075,7.529211089,-21.59543269,7.861075661,24.18363586
2.66975275,6.953686025,-21.92910288,8.021886955,24.36370195
2.67978575,6.017614042,-21.65640746,8.395971347,23.99383249
2.68981775,5.309701583,-21.72551687,8.39116669,23.88729144
2.69984975,4.446550811,-21.50653864,8.515433471,23.55452453
2.70988175,3.516614311,-21.09790948,8.560043634,23.03828787
2.71991375,2.567590161,-20.53215863,8.64526037,22.4254896
2.72994575,1.614044359,-19.70817133,8.67356791,21.59277511
2.73997775,0.560189572,-18.78696824,8.634298595,20.68369165
2.75000975,-0.564262158,-18.15882642,8.470758405,20.04532655
2.76004275,-2.173694233,-17.43029024,8.542299673,19.53230269
2.77007475,-4.405874655,-16.10229986,8.801779808,18.87239042
2.78010675,-6.552171174,-14.9376456,8.905287219,18.58408845
2.79013875,-8.409620503,-13.9747308,9.178219458,18.71508831
2.80017075,-9.90109962,-13.24139524,9.505377021,19.07140566
2.81020275,-10.80795365,-12.87404859,9.890360624,19.50313366
2.82023475,-11.02533442,-12.84126793,10.24645723,19.7849955
2.83026675,-10.57476435,-13.1393391,10.41328998,19.82181832
2.84029975,-9.690691658,-13.46586985,10.73313502,19.75953802
2.85033175,-8.844493718,-13.44347384,10.78520798,19.37195832
2.86036375,-8.172118297,-13.04113395,10.64994551,18.71566273
2.87039575,-7.562195233,-12.63031325,10.32371415,17.98028597
2.88042775,-7.056214612,-12.25771464,9.411741464,16.98889667
2.89045975,-6.629441544,-11.89971184,8.320190848,15.96177349
2.90049175,-6.219371633,-11.58674547,7.344989882,15.06260703
2.91052375,-5.884867628,-11.33783301,6.406362081,14.29054231
2.92055675,-5.545151415,-11.21170155,5.543866197,13.68157185
2.93058875,-5.203168237,-11.08767392,4.837375782,13.16851082
2.94062075,-4.859697527,-11.08003746,4.056845582,12.76095162
2.95065275,-4.70541231,-10.9408363,3.475270988,12.40646253
2.96068475,-4.620357542,-10.55598193,3.198495959,11.95854651
2.97071675,-4.496760267,-10.14136639,2.772326909,11.43476985
2.98074875,-4.430310169,-9.634523889,2.554328676,10.90762549
2.99078075,-4.189520075,-9.177096208,2.280316456,10.34267936
3.00081375,-4.052961277,-8.879451297,1.727182719,9.912331239
3.01084575,-4.091074013,-8.887599392,1.171615371,9.853882083
3.02087775,-4.177463701,-9.149204405,0.761920266,10.08660829
3.03090975,-3.834408728,-9.798636521,0.735952197,10.54787152
3.04094175,-3.234926451,-10.59651833,0.637130744,11.0976072
3.05097375,-2.458108649,-11.22184296,0.162911614,11.48906427
3.06100575,-2.216588237,-11.50497567,0.034816076,11.71660961
3.07103775,-1.71110463,-12.23924913,-0.73553529,12.38014986
3.08107075,-1.493771226,-12.54074794,-1.82901081,12.76115167
3.09110275,-1.420621973,-12.36362643,-2.523031454,12.69815392
3.10113475,-1.360151823,-11.80581141,-3.341094346,12.34463881
3.11116675,-1.078865082,-10.45810071,-4.035015002,11.26131281
3.12119875,-0.654636723,-8.951395438,-4.614085234,10.09186861
3.13123075,-0.125410497,-7.586924862,-5.130915948,9.15988292
3.14126275,0.336973284,-6.586938134,-5.741385727,8.744416221
3.15129475,0.449707602,-5.73851182,-6.649284071,8.794642318
3.16132775,0.439875509,-4.769398976,-7.555367439,8.94562654
3.17135975,0.481686024,-4.245605983,-8.488024063,9.502828215
3.18139175,0.416414141,-4.059189731,-8.920420983,9.809400212
3.19142375,0.248713657,-4.357883048,-8.721040285,9.752412357
3.20145575,0.206478049,-5.14533752,-7.908913486,9.437586763
3.21148775,0.458243367,-6.26628209,-6.850292634,9.295309967
3.22151975,1.109926077,-7.453473859,-5.610594038,9.394944061
3.23155175,2.280363234,-8.585898852,-4.546854825,9.979559328
3.24158475,3.436622647,-9.827427042,-3.812239302,11.08701339
3.25161675,4.879814873,-11.46867966,-3.415528232,12.92319773
3.26164875,6.701633608,-13.12633022,-3.524814154,15.15377025
3.27168075,8.971108156,-14.30338175,-4.440608286,17.45813601
3.28171275,11.23410691,-14.75249118,-5.490179987,19.33864603
3.29174475,13.44772944,-14.47726858,-6.819966635,20.90322171
3.30177675,16.55008899,-12.95616455,-7.86793386,22.44263863
3.31180975,19.09594213,-10.67631879,-7.791420704,23.22380299
3.32184175,20.7938683,-8.24678958,-8.116628805,23.79651572
3.33187375,22.276079,-5.560495094,-7.259926343,24.08006088
3.34190575,22.75214994,-2.476090592,-6.076920011,23.67953353
3.35193775,22.61852235,0.280192142,-5.691186211,23.32521515
3.36196975,22.28887505,2.661213439,-5.19999203,23.0416129
3.37200175,21.42079741,4.740668682,-4.988107061,22.49901583
3.38203375,20.32617759,6.503030589,-4.932692413,21.90375211
3.39206675,19.68084379,7.919601611,-3.923126192,21.57421194
3.40209875,17.49242977,9.082771264,-3.319930057,19.98759037
3.41213075,15.69082662,9.577284325,-2.96308121,18.62005009
3.42216275,13.92508677,9.984459865,-2.206887414,17.27622159
3.43219475,12.55875971,10.09657438,-1.529836121,16.18652705
3.44222675,11.37127675,10.11021242,-1.070391151,15.25346083
3.45225875,10.25822299,10.10339223,-0.779851484,14.4193565
3.462290625,9.472274179,9.62738093,-1.016472075,13.54413737
3.472323625,8.240589777,9.85229525,-0.451137538,12.8521814
3.482355625,7.234493878,9.883915823,-0.043951474,12.24873975
3.492387625,6.737471777,8.903527792,-0.170133218,11.16670401
3.502419625,5.53761377,8.531796319,-0.014954839,10.17137839
3.512451625,5.683556179,7.704499505,0.613451275,9.59366697
3.522483625,5.393238414,6.752896732,1.819890616,8.831796913
3.532515625,5.063820317,5.48888249,1.451687353,7.607726557
3.542547625,5.579372245,4.217898951,2.1938452,7.330281234
3.552580625,6.354804842,2.4368242,2.732224073,7.333941992
3.562612625,7.536748735,0.256987467,3.608916703,8.360197595
3.572644625,8.968390371,-2.209596722,4.638661958,10.33593384
3.582676625,10.6487597,-4.65438249,5.748008283,12.96529825
3.592708625,12.83863668,-7.11087146,6.839885175,16.19194596
3.602740625,14.91488122,-9.26692172,7.776570531,19.20428518
3.612772625,16.38105651,-10.92287132,8.332716168,21.3794829
3.622805625,17.47024193,-12.09613385,9.110659559,23.11990322
3.632837625,17.85756032,-12.60315761,9.739335229,23.92878378
3.642869625,17.91976067,-13.48383834,10.28514942,24.67217091
3.652901625,17.13737982,-14.04070728,10.4011114,24.47477
3.662933625,15.80029468,-14.06425869,10.55717359,23.64120553
3.672965625,14.89757463,-13.36916742,10.15750704,22.44654354
3.682997625,13.92777065,-12.7795763,9.91561007,21.34524979
3.693029625,12.86206414,-12.77576625,9.209083402,20.33371865
3.703062625,11.87365665,-13.55031416,7.986234727,19.70722409
3.713094625,10.31370956,-13.8885522,6.930135194,18.63575222
3.723126625,8.016018689,-13.28425182,6.202276713,16.70916331
3.733158625,5.408993152,-11.98742359,5.909235315,14.41785675
3.743190625,3.114421184,-10.70270377,6.10997666,12.71138474
3.753222625,1.785273052,-10.23985221,6.29894756,12.15395053
3.763254625,1.350497485,-11.15446667,6.235592979,12.85023696
3.773286625,1.131111124,-12.33816063,6.179994144,13.84564725
3.783319625,1.054454126,-13.6079794,6.027913912,14.92061403
3.793351625,0.62538895,-14.51448611,6.042814956,15.73458074
3.803383625,0.105769115,-14.80929103,5.974386746,15.96933264
3.813415625,-0.447455254,-14.49487338,6.070462346,15.72107133
3.823447625,-1.185829952,-13.79260641,6.004497567,15.08960487
3.833479625,-1.811640487,-13.01835904,6.016834023,14.45551815
3.843511625,-2.467005773,-11.95165968,6.093890385,13.64052002
3.853544625,-3.055239176,-11.03194177,6.123863797,12.98229307
3.863576625,-3.562064719,-10.14952793,5.971419868,12.30280771
3.873608625,-4.113409792,-9.611118654,5.493797075,11.80997664
3.883640625,-4.76167188,-9.372338247,4.756925696,11.5387428
3.893672625,-5.382795287,-9.422070571,4.183978668,11.6299431
3.903704625,-5.88279596,-9.596073768,3.771664888,11.87086248
3.913736625,-6.156615806,-9.941264144,3.314097459,12.15384272
3.923768625,-6.244776031,-9.955214431,3.103166171,12.15455315
3.933801625,-6.171587017,-9.726228696,2.438261445,11.77425708
3.943833625,-6.142375497,-8.972786307,2.134100981,11.08124803
3.953865625,-6.045531573,-8.108553216,2.024310737,10.31479138
3.963897625,-5.994817502,-7.347419985,2.051231318,9.702059948
3.973929625,-5.836796499,-6.894305211,2.483872066,9.368524865
3.983961625,-5.696594301,-6.816735463,3.128708271,9.418486314
3.993993625,-5.614553187,-7.132670465,3.726986606,9.81267673
4.004025625,-5.707951348,-7.684856368,4.117901039,10.42088456
4.014058625,-5.867309609,-8.209067438,4.343952641,10.98562856
4.024090625,-6.091749719,-8.639051796,4.874044256,11.64040111
4.034122625,-6.470638769,-9.097130857,5.556076353,12.46984123
4.044154625,-6.900904378,-9.663782771,6.230538645,13.41010032
4.054186625,-7.149926183,-10.18493282,6.599954621,14.08593987
4.064218625,-7.111107103,-10.52752587,6.424601301,14.23629681
4.074250625,-6.833672508,-10.81675488,5.947745662,14.10946294
4.084283625,-6.392716434,-10.85816018,5.273800848,13.65940853
4.094315625,-5.792772228,-10.74406814,4.422011216,12.98250336
4.104347625,-5.280838557,-10.56765297,3.478339607,12.31508796
4.114379625,-5.595073773,-9.991404018,2.517651431,11.72482723
4.124411625,-6.522241616,-9.246923073,1.922942237,11.47793226
4.134443625,-7.64711493,-8.659200132,1.601301522,11.66294475
4.144475625,-8.769296771,-7.866670861,1.530524485,11.87971302
4.154507625,-9.495885821,-7.137958102,1.647331973,11.99316455
4.164540625,-9.369901128,-6.877938269,1.804515654,11.76254049
4.174572625,-8.409105363,-7.087305427,1.754024363,11.13640663
4.184604625,-7.143559735,-8.074900151,1.052635058,10.83247426
4.194636625,-6.103462862,-9.109182553,0.356825166,10.97072422
4.204668625,-5.282653533,-9.896504878,-0.57565575,11.23292556
4.214700625,-4.519800051,-11.07263371,-2.025834813,12.12995534
4.224732625,-4.22981967,-12.42383637,-2.749175443,13.4089914
4.234765625,-3.556694051,-13.87954515,-3.112240173,14.66212417
4.244797625,-2.264734211,-15.00731868,-3.595660481,15.59735264
4.254829625,-0.571724959,-15.58780569,-4.091095063,16.12586787
4.264861625,1.630540524,-16.43096951,-4.688149576,17.16432836
4.274893625,4.221401433,-17.28324446,-5.381322373,18.58734515
4.284925625,6.733229038,-17.94482885,-6.077800017,20.1070363
4.294957625,8.69177614,-18.21743306,-6.300205296,21.14508043
4.304989625,10.48484821,-17.86390923,-5.947136382,21.55039967
4.315022625,11.9054503,-16.45237149,-5.251268018,20.97608377
4.325054625,13.42593687,-14.12103282,-3.842702419,19.86015384
4.335086625,14.36166679,-11.04718195,-2.857690118,18.34295764
4.345118625,15.21856572,-7.41547222,-1.187450216,16.97068086
4.355150625,15.54993796,-3.721731128,0.618571389,16.00107758
4.365182625,15.46216891,0.590220287,1.870496221,15.58607659
4.375214625,15.32907108,4.287164483,2.926212761,16.18403289
4.385247625,15.08437095,5.894343041,4.356127714,16.77072973
4.395279625,15.01740279,6.184239222,5.751694368,17.22931193
4.405311625,14.95160641,6.41835589,6.637367445,17.57271957
4.415343625,14.18251395,6.145679174,7.749183927,17.29054441
4.425375625,13.09639364,5.693657244,8.222320737,16.47846527
4.435407625,11.97256464,5.296162355,7.85076585,15.26519454
4.445439625,11.07056263,4.796926498,7.114535326,14.0065868
4.455471625,10.61878453,4.746465027,6.021182013,13.09740997
4.465504875,10.32377145,4.780989912,4.668611689,12.29772567
4.475536875,10.26113608,4.619399183,3.540591111,11.79684482
4.485568875,10.40340234,4.024167248,2.729368585,11.48364729
4.495600875,10.86603287,2.947068025,1.733937423,11.39133089
4.505632875,11.6701256,1.871545796,0.864906691,11.85084717
4.515664875,12.64568208,0.856415364,-0.046026358,12.67473238
4.525696875,13.59228782,0.009771867,-0.710130308,13.61082909
4.535729875,14.32306113,-0.666748645,-1.001591204,14.37351102
4.545761875,14.88957447,-1.19451833,-1.252638484,14.9898434
4.555793875,15.39189941,-1.630156946,-1.484061047,15.54896834
4.565825875,15.84506447,-1.994196407,-1.296563645,16.02260792
4.575857875,16.02931141,-2.380285717,-0.938658499,16.2322415
4.585889875,15.6756414,-2.623929838,-0.427890178,15.89949153
4.595921875,14.64639345,-2.338840068,0.346421507,14.83600424
4.605953875,13.23998606,-1.596750634,1.421140329,13.41143107
4.615986875,11.75578497,-0.701641905,2.58146268,12.05631499
4.626018875,10.58188158,-0.282467294,3.415208097,11.1229336
4.636050875,10.06640391,-0.522353409,4.105894951,10.88410374
4.646082875,9.847623324,-0.742212811,4.772626347,10.96834205
4.656114875,9.59398982,-0.772558106,5.089324703,10.88773221
4.666146875,9.515517848,-1.215579416,5.086817417,10.8581041
4.676178875,9.636262851,-2.058873044,4.894430573,11.00236205
4.686211875,10.22735554,-3.427738972,4.463795127,11.67363109
4.696243875,11.1585948,-5.21591049,3.897952759,12.91951996
4.706275875,12.15424348,-7.318152332,3.054901206,14.51252595
4.716307875,12.93532624,-9.278284029,2.25588942,16.07788097
4.726339875,13.28961021,-10.95889485,1.424942189,17.28414233
4.736371875,12.94276273,-12.12341111,0.68092902,17.74699604
4.746403875,11.8105383,-12.27156669,0.204095893,17.03296272
4.756435875,10.27297084,-11.75344024,0.043650634,15.61022718
4.766468875,8.427020062,-10.59936944,0.390740771,13.54673311
4.776500875,6.796457319,-9.63867892,0.970087575,11.83372441
4.786532875,5.433957839,-9.050812722,1.545092238,10.66922766
4.796564875,4.197801486,-8.723941088,1.789208229,9.845300987
4.806596875,3.110938582,-8.441686049,1.911468245,9.197484061
4.816628875,2.082477084,-8.213364556,1.934415936,8.691261885
4.826660875,1.164992815,-8.171222504,2.039172312,8.502017948
4.836693875,0.370288965,-8.230548354,2.158539419,8.51694385
4.846725875,-0.538109316,-8.32262095,2.201439563,8.6256546
4.856757875,-1.24879394,-8.502053288,2.399906049,8.922104318
4.866789875,-1.839673793,-8.759817849,2.826754839,9.386658156
4.876821875,-2.350945559,-9.136596054,3.062800795,9.918925404
4.886853875,-2.710472138,-9.580641797,3.259007624,10.47647303
4.896885875,-3.042639011,-10.11447154,3.386734203,11.09189592
4.906917875,-3.268429243,-10.71186636,3.582732287,11.75851526
4.916950875,-3.385540786,-11.45918729,3.754110085,12.52470368
4.926982875,-3.663191144,-12.27477798,3.915250577,13.3947128
4.937014875,-4.113599242,-12.78709114,4.167795914,14.0642071
4.947046875,-4.38512698,-12.98174495,4.538990905,14.43459313
4.957078875,-5.26331679,-12.96613522,4.338135831,14.6506856
4.967110875,-5.400726358,-12.80177467,4.522449717,14.61183874
4.977142875,-5.553535153,-12.4200427,4.944157634,14.47563153
4.987175875,-5.801718467,-12.36865854,4.656782772,14.43361621
4.997207875,-6.07009631,-12.13728305,4.565434645,14.31792242
5.007239875,-6.172436033,-12.01657079,4.64740033,14.28619158
5.017271875,-6.282125705,-11.6512426,5.100264258,14.18552971
5.027303875,-6.032401065,-10.99048033,5.874320421,13.84514937
5.037335875,-5.495405059,-10.24861017,6.812153585,13.47734854
5.047367875,-5.028730007,-9.441630676,7.509792486,13.07017592
5.057400875,-4.627826775,-8.900516476,7.860158817,12.74433485
5.067432875,-4.536395034,-8.882687731,7.53479518,12.50016638
5.077464875,-5.141036308,-8.907478171,7.366730415,12.65077621
5.087496875,-5.913490334,-9.264474075,6.947675087,13.00269345
5.097528875,-6.637840485,-9.977999861,5.922244785,13.36766213
5.107560875,-7.367087095,-10.69271906,4.859427386,13.86442382
5.117592875,-7.793604639,-11.45497847,3.57986949,14.3098662
5.127624875,-7.824902446,-12.13434073,2.542158281,14.66062386
5.137657875,-7.903649822,-12.50962789,1.786647733,14.90471672
5.147689875,-8.163853258,-12.35665771,1.14664893,14.85430219
5.157721875,-8.546969259,-12.10749967,0.462912954,14.82755948
5.167753875,-9.038298512,-12.047409,0.289554704,15.06368964
5.177785875,-9.396291366,-12.0303059,0.635599358,15.27817194
5.187817875,-9.164066858,-11.86395729,0.785015014,15.01165722
5.197849875,-8.346885141,-11.2865693,0.875707083,14.06499204
5.207882875,-7.233530257,-10.35618023,1.170545915,12.68639455
5.217914875,-6.06553022,-9.247497854,1.703730122,11.18970821
5.227946875,-4.838651059,-8.194651712,2.03304063,9.731295646
5.237978875,-3.77556235,-6.894044425,2.162986811,8.152375821
5.248010875,-3.134335046,-5.673844539,1.968289148,6.774269718
5.258042875,-2.646122945,-4.789461942,1.814750621,5.764913889
5.268074875,-2.347859398,-4.065536883,1.462762856,4.917388441
5.278107875,-2.113563806,-3.533691397,0.683845319,4.173939539
5.288139875,-1.952351977,-3.200597448,-0.356993566,3.766025315
5.298171875,-1.569810172,-3.155290298,-1.326400817,3.765567682
5.308203875,-0.795120172,-3.328468453,-1.993672788,3.96051127
5.318235875,0.095711904,-3.770911474,-3.119450667,4.894885757
5.328267875,1.073320168,-4.315122945,-4.005636837,5.984766385
5.338299875,2.179220436,-5.163300167,-4.841267688,7.405845202
5.348331875,3.166873632,-6.200137217,-5.590686607,8.928973449
5.358364875,4.418200001,-7.462851039,-5.89453483,10.48618986
5.368396875,5.712560123,-8.584342323,-5.750644208,11.80653146
5.378428875,6.483930659,-9.082119884,-5.005830556,12.23047824
5.388460875,7.182427347,-9.38593127,-4.174742699,12.53441044
5.398492875,7.946305261,-9.682290963,-3.840212382,13.10105937
5.408524875,8.92931109,-9.673227194,-3.595052955,13.64654999
5.418556875,10.0369854,-9.585390905,-3.525366716,14.3195323
5.428589875,11.02888017,-9.130307958,-3.439844755,14.72519111
5.438621875,11.86652188,-8.286993865,-3.4544511,14.88025004
5.448653875,12.48098004,-7.041276146,-3.433789963,14.73585241
5.458685875,12.68742769,-5.186789017,-3.136040387,14.06088016
5.468717417,12.4042903,-2.837090085,-2.668780613,13.00145715
5.478749417,11.95370971,-0.516920761,-2.130808414,12.15313653
5.488781417,12.13610425,0.685589544,-2.133535556,12.34127357
5.498813417,12.76152126,0.656582092,-2.350567536,12.99279388
5.508846417,13.4134519,0.063673255,-2.106157138,13.57794697
5.518878417,13.88601802,-0.62649232,-1.941543399,14.03508389
5.528910417,14.0009696,-1.151883942,-1.810585357,14.16446983
5.538942417,13.79805601,-1.329584334,-1.452840424,13.93789401
5.548974417,13.59250299,-1.225843619,-0.764265292,13.66905014
5.559006417,14.05115625,-1.462023184,-0.402603894,14.13274898
5.569038417,14.81534524,-1.595506346,-0.375119934,14.90573078
5.579071417,15.41037544,-1.012856449,-0.434427073,15.44973386
5.589103417,15.51304203,0.09844957,-0.843428991,15.53626524
5.599135417,14.77366278,1.649936907,-1.057915386,14.90310668
5.609167417,13.37857676,3.299840485,-0.826849795,13.80430889
5.619199417,11.69022599,4.516298153,-0.468993473,12.54106405
5.629231417,9.990937411,5.216260738,-0.288445487,11.27436948
5.639263417,8.370283944,5.856770588,0.026502213,10.21587575
5.649296417,7.022741057,6.599708453,0.405530426,9.645698447
5.659328417,6.202895933,7.391035536,0.623415807,9.669124651
5.669360417,5.642525098,8.168952615,0.886064548,9.96769716
5.679392417,5.282863448,8.623748463,0.932328303,10.15612721
5.689424417,4.949780316,8.670475318,0.889711749,10.02342528
5.699456417,4.584843893,8.441929293,1.500048797,9.723019598
5.709488417,4.006015152,7.762381677,2.032775458,8.968550761
5.719520417,3.407415805,6.598197532,2.215472589,7.749516884
5.729553417,2.839545623,5.422359887,2.444899204,6.591095372
5.739585417,2.251046171,4.411179249,2.670475721,5.626468858
5.749617417,1.963977996,3.352315738,2.434230959,4.584834865
5.759649417,2.039367025,2.212626749,1.89742528,3.557380733
5.769681417,2.476179177,1.498058989,0.97028258,3.052391249
5.779713417,3.010570833,1.320472618,-0.591029542,3.340134817
5.789745417,3.28927749,1.126580701,-2.030654673,4.026423833
5.799778417,3.410623003,-1.303591121,-3.242570516,4.883232805
5.809810417,1.88714032,-1.98222014,-0.057112971,2.737472769
5.819842417,1.111624693,-1.878765938,1.266275361,2.523672759
5.829874417,1.578850552,-5.306078063,-5.572213499,7.854730852
5.839906417,2.310215608,-4.591775767,-4.851290401,7.067992601
5.849938417,3.259947272,-4.155361226,-2.840330611,5.996812579
5.859970417,4.603401201,-6.27024007,-3.06462805,8.360571646
5.870003417,5.248718632,-7.636013991,-2.629922065,9.631938902
5.880035417,4.894657445,-8.506853852,-2.247306,10.06849632
5.890067417,3.979298639,-8.962747808,-2.002444489,10.00876865
5.900099417,3.213546107,-8.543653303,-1.207610246,9.207562808
5.910131417,2.379830219,-7.274030997,-0.334547274,7.660746745
5.920163417,2.009253572,-6.37537944,0.594447239,6.710881495
5.930195417,2.195970955,-6.67585031,1.137547739,7.119219105
5.940227417,2.418642282,-7.538844377,1.223958476,8.011371879
5.950260417,2.354432838,-8.412386236,1.050482697,8.798585685
5.960292417,2.21711741,-9.588539046,0.657060978,9.863438537
5.970324417,1.774310693,-10.5907179,0.335970486,10.74357297
5.980356417,1.228545617,-11.42252642,-0.046620435,11.48849893
5.990388417,0.568327142,-12.13371391,-0.27791816,12.15019536
6.000420417,-0.186570033,-12.57291815,-0.496419838,12.58409758
6.010452417,-0.828746924,-12.92730269,-0.692439557,12.97233398
6.020485417,-1.521485859,-12.80115486,-0.734708494,12.91217571
6.030517417,-2.148653532,-12.29021697,0.266087489,12.47946104
6.040549417,-2.756572756,-11.63676606,1.598148703,12.06511902
6.050581417,-3.423867531,-10.8153995,2.762667308,11.67596102
6.060613417,-4.212485014,-9.224467426,3.917730381,10.87126674
6.070645417,-4.838377994,-7.016469333,4.817713349,9.790357779
6.080677417,-5.052944496,-4.829790189,5.458700917,8.86885207
6.090709417,-5.218285044,-2.423527046,6.298970364,8.531178687
6.100742417,-5.390655699,0.014171019,7.111849115,8.923999525
6.110774417,-5.086728539,1.849247731,7.475893838,9.229491485
6.120806417,-4.717849338,3.297817056,7.488744848,9.445369189
6.130838417,-4.003211412,4.385989444,7.517856381,9.580228055
6.140870417,-4.232376657,5.082774067,6.762396119,9.459260312
6.150902417,-4.029284731,5.018609061,5.533930609,8.487989181
6.160934417,-3.594986882,4.96121864,5.134321366,7.993677311
6.170967417,-4.461590434,4.773232411,4.155655341,7.743320228
6.180999417,-4.774142822,4.041389345,3.123235862,6.991414003
6.191031417,-5.205020635,3.296142414,2.883839158,6.802449773
6.201063417,-6.129425084,2.406173972,2.535529878,7.056092177
6.211095417,-6.518861926,1.11367882,2.360219243,7.021857033
6.221127417,-6.724272857,-0.561385035,2.300812116,7.129146864
6.231159417,-6.970487414,-1.773090086,3.091259778,7.828628888
6.241192417,-6.592761376,-3.504752357,3.577789636,8.279394321
6.251224417,-6.133207063,-5.312275527,4.442303393,9.250435643
6.261256417,-5.633167214,-6.78291049,6.077072623,10.70846671
6.271288417,-5.299675362,-8.178440892,7.609171763,12.36418009
6.281320417,-5.126317697,-9.451290861,9.022216914,14.03589791
6.291352417,-4.988715756,-10.51746749,9.830481627,15.23623235
6.301384417,-4.851967508,-11.37028857,9.801434414,15.77634835
6.311416417,-4.84583144,-11.8519857,8.920755444,15.60549663
6.321449417,-4.871078548,-11.91755404,7.895197672,15.10263708
6.331481417,-5.098615344,-11.65852238,6.824253228,14.43909466
6.341513417,-5.192821004,-11.24551015,5.780590723,13.66902036
6.351545417,-4.63536676,-11.21413049,4.502285886,12.94271709
6.361577417,-3.357756572,-12.04329022,3.334519152,12.93964399
6.371609417,-1.981824283,-12.83525348,2.142513371,13.16289189
6.381641417,-0.754397823,-12.81205173,0.446783409,12.84201702
6.391674417,0.123874433,-12.17142143,-0.945231062,12.20869798
6.401706417,1.065571437,-11.59292247,-1.999835461,11.81230866
6.411738417,2.437281452,-11.5739506,-2.078477588,12.00902754
6.421770417,3.301786439,-11.35677214,-2.455042954,12.07912675
6.431802417,4.419696888,-11.15946721,-2.582060266,12.27739647
6.441834417,5.254054216,-10.95666004,-2.840949247,12.4789614
6.451866417,5.91986029,-10.76641737,-2.839641517,12.61047393
6.46189875,6.254755474,-10.49567491,-2.397197619,12.45101258
6.47193175,6.390105067,-10.10601646,-1.805056814,12.09228025
6.48196375,6.403558341,-9.503043398,-1.186198912,11.52043667
6.49199575,6.199682304,-8.329406059,-0.292895218,10.38753357
6.50202775,5.939667149,-6.486939636,0.520399854,8.810836946
6.51205975,5.701986018,-4.34748319,0.869204979,7.2227953
6.52209175,5.453286395,-2.270054008,0.955442054,5.983673389
6.53212375,5.199537701,-0.482466043,0.920098852,5.302315313
6.54215675,4.982537003,0.833927558,0.88678551,5.129083612
6.55218875,4.755567095,1.827697526,0.960089421,5.184367689
6.56222075,4.586729912,2.472873453,0.962739526,5.299062351
6.57225275,4.506577157,2.735848469,0.813132227,5.33434987
6.58228475,4.583998386,2.667457681,0.449191293,5.322606927
6.59231675,4.782150292,2.309068385,-0.005043224,5.310441003
6.60234875,5.226914949,1.614917348,-0.636117714,5.507562408
6.61238175,5.732841775,0.828126535,-1.283581072,5.932861767
6.62241375,6.086791865,0.212455072,-1.678468688,6.317549328
6.63244575,6.231542612,0.017426457,-1.625716278,6.44013823
6.64247775,6.255536077,-0.010535513,-1.468596039,6.42562191
6.65250975,6.517657399,-0.048737712,-1.225866276,6.632117419
6.66254175,7.326717333,0.120549122,-0.796756808,7.370898207
6.67257375,8.763236132,0.313899002,-0.91660134,8.816631902
6.68260575,10.07326738,0.969877076,-1.027589679,10.1718886
6.69263875,11.15960988,1.814942994,-0.828185007,11.33652509
6.70267075,11.99345557,2.696789069,-0.618285753,12.30844934
6.71270275,12.69985419,3.606766682,-0.347553528,13.20665952
6.72273475,13.59129262,4.158578364,-0.1334779,14.21389551
6.73276675,14.6765569,4.463171521,0.089003978,15.34044146
6.74279875,15.89844838,4.539926752,0.163039084,16.53475665
6.75283075,17.18243145,4.358405789,0.328116214,17.7296168
6.76286375,18.39701275,4.048075928,0.464724713,18.84284919
6.77289575,19.47793371,3.824137509,0.868125583,19.86875868
6.78292775,20.3436327,3.944897715,1.475367992,20.7750408
6.79295975,20.88357862,4.019624546,1.464173497,21.31724752
6.80299175,21.22842869,4.166121857,2.205759779,21.74553132
6.81302375,21.02852175,4.35177797,2.536964784,21.62343378
6.82305575,20.64185941,3.921402433,2.634377058,21.17554484
6.83308775,20.03922665,2.627467403,2.299355575,20.34112155
6.84312075,18.76159483,1.464277285,2.024327986,18.92721459
6.85315275,17.33390942,0.611248629,1.0726071,17.37781708
6.86318475,15.99232894,-0.370885965,0.013589806,15.99663483
6.87321675,14.83074914,-1.891208813,-0.822482218,14.9734521
6.88324875,13.93067788,-3.655110292,-1.574681926,14.48803785
6.89328075,13.33477527,-5.630682732,-2.697565871,14.72405111
6.90331275,14.10419518,-8.102529414,-3.018195018,16.54354272
6.91334575,14.2400716,-10.26405501,-2.845229701,17.78273872
6.92337775,14.38321495,-12.04533675,-3.019491346,19.00221928
6.93340975,14.62212166,-13.3355319,-2.848105946,19.99386307
6.94344175,14.57747115,-14.34946716,-2.307057235,20.58476101
6.95347375,14.17130601,-15.00643224,-1.694447375,20.70966138
6.96350575,13.46862622,-15.24269952,-0.652879927,20.35116786
6.97353775,12.51460153,-15.06861621,0.523962563,19.59471824
6.98356975,11.37257717,-14.44290801,1.566863176,18.44961147
6.99360275,10.32052742,-13.76976485,2.118193046,17.33800599
7.00363475,9.410850933,-13.18124727,2.445145372,16.37950337
7.01366675,8.604911073,-12.85334243,2.54089499,15.67510936
7.02369875,7.805861573,-12.78773901,2.288904262,15.15575226
7.03373075,7.07097123,-12.93362587,1.914399455,14.86412586
7.04376275,6.325609694,-13.18964504,1.591755357,14.71440652
7.05379475,5.613649208,-13.71333688,1.318948833,14.87643411
7.06382775,4.674529656,-14.36096279,1.028697726,15.13759224
7.07385975,3.648195959,-14.9987186,1.023618835,15.46992853
7.08389175,2.550447294,-15.71364713,1.07474338,15.9555182
7.09392375,1.468370921,-16.50480581,1.365002673,16.62612283
7.10395575,0.442392735,-17.32496786,1.89119244,17.43349739
7.11398775,-0.537535704,-18.0917226,2.452871298,18.26515669
7.12401975,-1.373130303,-18.7718871,3.111319821,19.07746165
7.13405175,-2.118536278,-19.24226519,3.699856694,19.70892958
7.14408475,-2.9139722,-19.33064936,4.346418412,20.02639738
7.15411675,-3.826606788,-18.96341265,5.152609118,20.02007291
7.16414875,-4.764855105,-18.06192285,5.77983,19.55360161
7.17418075,-5.119700988,-17.50650987,5.783809031,19.13482879
7.18421275,-6.00953319,-16.38949054,6.021676687,18.46592752
7.19424475,-6.607425023,-15.32685148,6.076731146,17.76223812
7.20427675,-7.119748703,-14.47210081,5.837359586,17.15247185
7.21430975,-7.836713821,-13.57398837,5.649127189,16.66072873
7.22434175,-8.744229172,-12.9633192,5.552924119,16.59349737
7.23437375,-9.524363515,-12.35447436,5.752679624,16.62648069
7.24440575,-9.933221884,-11.62128498,6.053365672,16.44282206
7.25443775,-10.14217564,-10.79941905,6.498500167,16.17781453
7.26446975,-10.21649609,-10.03920384,7.036886056,15.95870206
7.27450175,-10.32288033,-9.349369215,7.546665028,15.8406034
7.28453375,-10.28322686,-9.090486081,7.7690744,15.77149989
7.29456675,-9.875617454,-9.535915275,7.748605052,15.76395827
7.30459875,-9.428252247,-10.12433813,7.417652646,15.69763465
7.31463075,-9.110006425,-10.76083211,6.8605276,15.67975012
7.32466275,-8.629612051,-11.84911706,6.406121761,15.99719273
7.33469475,-7.909551417,-13.1523515,6.09719874,16.51427219
7.34472675,-7.254280856,-14.19111521,5.872141163,16.98512241
7.35475875,-6.589615574,-14.9513889,5.631096715,17.2822543
7.36479175,-5.926139615,-15.54864455,5.2907338,17.46056535
7.37482375,-5.569458876,-15.82740354,5.059202186,17.52487095
7.38485575,-5.539024703,-15.70756953,4.830991207,17.34205903
7.39488775,-5.713419079,-15.32502598,4.68089552,17.01206518
7.40491975,-5.771648576,-14.9400874,4.556371461,16.65168639
7.41495175,-5.710636389,-14.45393352,4.43997971,16.1629509
7.42498375,-5.475320458,-13.9451626,4.396616174,15.61335736
7.43501575,-5.052022975,-13.41962539,4.233734965,14.95104657
7.44504875,-4.500950966,-12.78991184,3.96806146,14.12748796
7.45508075,-3.86084399,-12.12001154,3.602184219,13.22030738
7.465112875,-3.208027505,-11.47542618,3.12711432,12.31891596
7.475144875,-2.709926593,-10.63676589,2.549233412,11.26867702
7.485176875,-2.26676261,-9.618794879,1.764492633,10.03856872
7.495208875,-1.835410003,-8.703798015,0.956870529,8.946531785
7.505240875,-1.330643265,-7.678438464,0.378631772,7.802076055
7.515273875,-0.928778751,-6.731416985,-0.158871773,6.797046773
7.525305875,-0.635342665,-6.154017888,-0.495169996,6.206511886
7.535337875,-0.251028569,-5.999385931,-0.524988749,6.027541794
7.545369875,0.271585625,-6.514129774,-0.315529498,6.527419423
7.555401875,0.869476875,-7.439189111,0.066287545,7.490121408
7.565433875,1.548966603,-8.690621899,0.401633841,8.836714111
7.575465875,2.432866219,-10.22488568,0.905365038,10.54925642
7.585497875,3.301960101,-11.94319642,1.507423013,12.4825961
7.595530875,4.492794685,-13.61821203,1.924108171,14.46869363
7.605562875,5.618521108,-14.9572595,1.862711238,16.08592815
7.615594875,6.855493147,-16.18135305,1.260981584,17.61885488
7.625626875,8.126469669,-17.00911647,0.402421753,18.85501248
7.635658875,9.531756735,-17.63455454,-0.976469811,20.06951403
7.645690875,11.36276086,-17.8922694,-2.247625258,21.3142548
7.655722875,13.27387301,-17.91957355,-3.889402961,22.63701121
7.665754875,15.31233167,-18.03817146,-4.874487767,24.15789233
7.675787875,17.17997094,-18.00851906,-5.399917688,25.46796559
7.685819875,18.63144984,-17.49859274,-5.338974499,26.11199571
7.695851875,19.69593662,-16.13115587,-4.748171537,25.89766866
7.705883875,20.27963609,-13.86824131,-4.008030102,24.89289181
7.715915875,20.93681401,-11.38033876,-3.296728305,24.0568225
7.725947875,21.79818372,-8.901218142,-2.681266465,23.69771483
7.735979875,22.31256796,-6.347261349,-2.12338742,23.2947889
7.746012875,22.53506154,-4.034418002,-1.637812121,22.9518617
7.756044875,22.39779698,-1.933310519,-1.231543777,22.51478845
7.766076875,22.04500873,-0.539334893,-1.038264063,22.07603416
7.776108875,21.23095937,0.062982699,-1.046427946,21.25682511
7.786140875,20.11236362,0.657845675,-1.172348904,20.15724022
7.796172875,19.10949597,1.555473384,-1.359562131,19.22084137
7.806204875,18.33664375,2.758532158,-1.856253573,18.63565618
7.816237875,18.35976598,3.902684326,-2.450024289,18.9291989
7.826269875,19.1526648,5.297024819,-3.047641596,20.10400856
7.836301875,20.3308156,6.585506735,-4.089198811,21.75850429
7.846333875,21.17413145,8.0684343,-5.081609302,23.22210644
7.856365875,22.10935851,9.288587408,-5.634281108,24.63425894
7.866397875,22.0431002,9.722514544,-6.095767926,24.85123623
7.876429875,21.84697523,9.075200874,-6.479572145,24.52823787
7.886461875,21.20203202,8.166470472,-5.855985307,23.46294879
7.896494875,20.36783315,6.776849851,-5.081569541,22.05893629
7.906526875,19.39571133,5.462606272,-3.778856671,20.50154733
7.916558875,18.1432085,4.451967672,-2.177412916,18.80790148
7.926590875,16.71563302,3.712891892,-0.531136219,17.13125971
7.936622875,15.15872415,3.349300328,1.189005868,15.56979336
7.946654875,13.64189092,3.259372491,2.616934521,14.26790255
7.956686875,12.11202892,3.073670769,3.500113176,12.97688286
7.966718875,10.73218426,2.389382231,4.042309404,11.71448641
7.976751875,9.28751269,1.366283798,4.263379472,10.31023898
7.986783875,7.964770183,0.086362206,3.845505574,8.844938418
7.996815875,6.946181708,-1.436076749,3.038606186,7.716533179
8.006847875,6.125541363,-3.020604363,2.050907674,7.131095989
8.016879875,5.464603096,-4.637317976,0.83175327,7.215152009
8.026911875,5.0742307,-6.299052225,-0.24033372,8.09219602
8.036943875,4.759080979,-7.930004978,-1.111044649,9.314947714
8.046976875,4.660308643,-9.678262231,-1.977584759,10.92236595
8.057008875,4.607242822,-11.15530399,-2.617266643,12.34980073
8.067040875,4.618295814,-12.40548079,-2.739765811,13.51780036
8.077072875,4.72087995,-13.63591974,-2.529832935,14.65008769
8.087104875,4.952225037,-14.79464259,-2.008880227,15.73027596
8.097136875,5.332289962,-16.03562757,-1.459650091,16.96187626
8.107168875,5.550070678,-17.19929365,-0.947676952,18.09743292
8.117200875,5.34598648,-17.9421672,-0.304901306,18.72415285
8.127233875,4.879223719,-18.36043841,0.386607666,19.0016312
8.137265875,4.036489086,-18.05430627,1.169956516,18.53699051
8.147297875,3.172008072,-17.74488214,1.693205134,18.10550803
8.157329875,1.53337968,-16.68000009,2.464607245,16.93068059
8.167361875,-0.696826723,-14.9286479,2.961928139,15.23558709
8.177393875,-3.10501126,-13.15437113,3.46450451,13.95282646
8.187425875,-4.919498756,-11.93308658,3.910917206,13.48685644
8.197458875,-5.811970975,-12.04985782,3.870087853,13.92679647
8.207490875,-6.183570301,-12.41106722,4.171967903,14.48020882
8.217522875,-6.185745465,-12.59591759,4.260054745,14.66521917
8.227554875,-5.96422487,-12.98824822,3.980566607,14.83615451
8.237586875,-5.858968556,-13.69275585,3.439673724,15.28562823
8.247618875,-6.073466645,-14.56001838,2.684996989,16.00282291
8.257650875,-6.140150632,-15.30700252,2.43135296,16.6708504
8.267683875,-6.155920572,-16.0377735,2.496448258,17.35908381
8.277715875,-6.062587316,-16.42343479,2.695935375,17.7130529
8.287747875,-6.091829242,-16.34369397,2.413199694,17.60824378
8.297779875,-6.599921876,-15.06048625,1.939253045,16.55711077
8.307811875,-7.593156824,-13.12930528,2.006819376,15.29908532
8.317843875,-9.015513666,-11.34488241,2.422272526,14.691945
8.327875875,-10.62971064,-9.605148647,3.082984799,14.65450183
8.337907875,-12.16912698,-7.8296077,3.160333814,14.8114185
8.347940875,-12.79252671,-6.269072381,2.810726159,14.52068145
8.357972875,-12.8338291,-4.727170969,2.627364492,13.92682157
8.368004875,-12.4171495,-3.628225379,2.212457179,13.12419856
8.378036875,-12.43446895,-2.94874179,1.290346593,12.84430187
8.388068875,-11.89625731,-2.703590257,0.2249342,12.20167749
8.398100875,-11.05365716,-2.163752797,0.072417766,11.26367645
8.408132875,-10.63914921,-1.81867498,-0.735046463,10.81847346
8.418164875,-10.18097192,-1.353777773,-1.371327022,10.36172965
8.428197875,-9.972936172,-0.599048121,-1.407549353,10.08957431
8.438229875,-9.613228914,-0.167174819,-1.052564014,9.672125339
8.448261875,-9.057189111,-0.084650141,-0.420779672,9.067353295
8.458293875,-8.397672887,-0.330320322,0.289942959,8.409166924
8.468325542,-7.669926088,-0.900696913,0.914282919,7.776563147
8.478357542,-7.026546425,-1.619224992,1.485316737,7.362092776
8.488389542,-6.395356452,-2.561420179,1.954189172,7.161027357
8.498422542,-5.824206859,-3.71993194,2.421268852,7.322692266
8.508454542,-5.147587529,-4.851384541,2.737909905,7.584836187
8.518486542,-4.192241369,-5.940629016,2.506584698,7.690834002
8.528518542,-3.061084637,-6.656285527,1.955929304,7.583009667
8.538550542,-2.012179518,-7.193912448,1.347504296,7.59058697
8.548582542,-1.030081762,-7.824267438,0.887186629,7.94149416
8.558614542,-0.014454902,-8.406933122,0.480127449,8.420644621
8.568646542,1.278803605,-8.808704665,-0.432435219,8.911544017
8.578679542,2.6561708,-9.134978714,-1.537473023,9.636747518
8.588711542,4.023711165,-9.67129235,-2.308426945,10.72627532
8.598743542,5.014223065,-9.922495751,-2.712899902,11.44369611
8.608775542,6.519794556,-9.981820432,-2.595350987,12.20165181
8.618807542,7.42458569,-9.500804499,-2.753673998,12.36820437
8.628839542,8.415334986,-9.169058041,-3.18933805,12.84762101
8.638871542,9.689949646,-9.326741075,-3.379103879,13.86728403
8.648904542,10.96603897,-9.469166384,-3.988883979,15.02765179
8.658936542,12.46027505,-9.32237379,-4.533124394,16.20846459
8.668968542,13.79553469,-9.089790847,-4.641791096,17.16063226
8.679000542,15.2616866,-8.676854045,-4.716883378,18.178445
8.689032542,16.13118744,-7.803633783,-4.472180034,18.46922583
8.699064542,17.29889278,-7.09221358,-3.964929106,19.11208643
8.709096542,18.65811548,-6.611488253,-3.237675812,20.05790605
8.719128542,19.5597959,-5.748632766,-2.55576826,20.54663831
8.729161542,19.94843576,-4.473539219,-2.038481171,20.54526826
8.739193542,19.68171853,-2.753428123,-1.863570486,19.96056877
8.749225542,18.72447553,-0.701347205,-1.40055316,18.78987549
8.759257542,17.15249254,1.486171015,-0.666426171,17.22964969
8.769289542,15.47256175,3.468081252,-0.290173778,15.85912846
8.779321542,13.68661159,5.352328954,-0.22439611,14.69765681
8.789353542,12.11742824,7.070008194,-0.394180542,14.03468779
8.799385542,10.82996374,8.699531302,-0.932195718,13.92260566
8.809418542,9.653260707,10.36236541,-1.657851552,14.25877032
8.819450542,8.496097314,11.97977426,-1.991726543,14.82112126
8.829482542,7.35797187,13.11479366,-2.406284631,15.22917491
8.839514542,6.057274536,13.70905671,-2.749083642,15.23765965
8.849546542,4.760031152,13.68196306,-3.220847526,14.84007643
8.859578542,3.91280995,13.32699263,-3.436650714,14.30836756
8.869610542,3.602302625,12.68731191,-3.267180862,13.58745519
8.879642542,3.749023007,11.75067684,-2.913646802,12.6737097
8.889675542,4.18442598,10.6166386,-2.189687537,11.61968879
8.899707542,4.669654832,9.22271677,-1.416982666,10.43417561
8.909739542,5.272572933,7.554107364,-0.862715739,9.252504625
8.919771542,5.832398808,5.823250254,-0.41423196,8.252194102
8.929803542,6.251707905,4.155900924,-0.19137586,7.509459963
8.939835542,6.554955618,2.367398454,0.067979729,6.969694387
8.949867542,6.720215474,0.574393044,0.493034885,6.762714454
8.959900542,6.934988383,-0.976911276,0.750112691,7.043513936
8.969932542,7.283773627,-2.53294073,0.836433382,7.756852957
8.979964542,7.704463252,-4.279682971,1.088169464,8.880233843
8.989996542,7.872017555,-6.028050737,1.347408694,10.00607647
9.000028542,7.974480654,-7.585209873,1.445808562,11.10036544
9.010060542,7.800566919,-8.832493477,1.45920541,11.87396588
9.020092542,7.616190176,-9.752463983,1.255965842,12.43761861
9.030124542,7.501786478,-10.37579062,1.198352934,12.85962212
9.040157542,7.276045947,-10.7134837,1.313995657,13.01714877
9.050189542,6.876262457,-10.55227479,1.358178388,12.66799657
9.060221542,6.22539485,-9.940435009,1.456447864,11.81901136
9.070253542,5.593700262,-9.372751645,1.534341547,11.02234821
9.080285542,5.594286738,-10.004455,0.907725266,11.49822287
9.090317542,5.792731882,-11.30655976,0.267189689,12.70690468
9.100349542,5.789363886,-12.79716706,-0.523556181,14.05554446
9.110382542,5.375020829,-14.24132875,-1.130952664,15.26385756
9.120414542,4.170876812,-15.43217503,-1.413721674,16.04826622
9.130446542,2.09718517,-15.92716523,-1.32001595,16.11878469
9.140478542,-0.60519793,-16.39317311,-0.906141256,16.42934817
9.150510542,-3.752935379,-17.57199401,0.477812244,17.9746433
9.160542542,-6.623310154,-18.53435215,2.352897944,19.82237563
9.170574542,-9.741295801,-18.17223876,4.338809431,21.07008241
9.180606542,-11.99580382,-17.0484425,6.413171749,21.81003147
9.190639542,-13.00516655,-15.90170762,8.161726041,22.10457949
9.200671542,-13.58612017,-14.05650762,9.34869737,21.66947647
9.210703542,-14.08862521,-11.74009221,9.940313387,20.85974486
9.220735542,-14.55704332,-9.58582126,9.965037754,20.07728709
9.230767542,-15.12317541,-7.464737935,9.517391295,19.36526489
9.240799542,-15.65197889,-5.61567059,8.554051992,18.7000536
9.250831542,-15.72925335,-4.640653228,6.94868607,17.81093236
9.260863542,-15.42058702,-3.640853318,5.697321694,16.837749
9.270896542,-15.42762941,-2.784847552,4.556611782,16.32574151
9.280928542,-15.46143333,-2.18727556,3.545959733,16.01292995
9.290960542,-15.32660005,-1.843800758,2.676167693,15.66735918
9.300992542,-14.89570118,-1.775095974,2.050829029,15.14063338
9.311024542,-14.08652957,-1.974897379,1.705473177,14.32617094
9.321056542,-12.89205568,-2.405986569,1.792965065,13.23663834
9.331088542,-11.56385362,-3.073954359,2.475794722,12.21889789
9.341120542,-10.33480515,-3.974548653,3.438520069,11.59433718
9.351153542,-9.308056882,-5.170378221,4.568268791,11.58627695
9.361185542,-8.338630042,-6.503902409,5.702672482,12.01473974
9.371217542,-7.424626036,-7.794132058,6.576648788,12.61451052
9.381249542,-6.551401096,-9.042862848,7.068779109,13.21596999
9.391281542,-5.509051875,-10.12417908,7.055135216,13.51382949
9.401313542,-4.21501452,-10.94821549,6.432290974,13.37924277
9.411345542,-2.741831925,-11.47427896,5.352431281,12.95473815
9.421378542,-1.124906058,-11.74353505,3.591601051,12.33189472
9.431410542,0.887320238,-11.98806678,1.248504795,12.08552219
9.441442542,2.557041199,-11.64557197,-1.207938859,11.98402781
9.451474542,4.357001288,-11.58141515,-3.596762973,12.88601339
9.461506542,5.84255893,-11.62270468,-5.377239847,14.07613112
9.471538542,6.992784601,-11.78260966,-6.366198142,15.10819002
9.481570542,7.979571825,-11.82349339,-6.992168305,15.88581065
9.491602542,9.091316385,-11.4930111,-7.11379039,16.28948592
9.501635542,9.94522037,-10.62166955,-6.564194219,15.96295455
9.511667542,10.79467579,-9.851807592,-6.133628647,15.84943339
9.521699542,11.55666272,-8.758514505,-5.434735519,15.48561848
9.531731542,12.37236801,-7.607258554,-4.900881514,15.3285522
9.541763542,13.63303355,-7.065563141,-4.865264661,16.10753198
9.551795542,15.41184894,-7.457531826,-5.14914932,17.87885923
9.561827542,16.93312722,-7.644853227,-5.272601584,19.31255824
9.571859542,17.7748,-6.623870902,-5.284975462,19.69137239
9.581892542,18.14456389,-5.085983019,-4.999255947,19.49576831
9.591924542,18.60689504,-3.318372066,-4.011517382,19.32150119
9.601956542,19.62187813,-1.212566931,-2.776836866,19.85445146
9.611988542,21.8294827,0.840392824,-1.656085547,21.90833619
9.622020542,24.28764047,2.376009064,-1.227295775,24.43442558
9.632052542,26.57015957,2.993420658,-0.548158926,26.74386705
9.642084542,27.88237299,2.758122852,0.411215381,28.02147504
9.652116542,27.5651288,2.691370454,1.44390851,27.73381821
9.662149542,25.83581945,2.678798355,2.685857699,26.11281982
9.672181542,23.48808518,2.412641285,3.709386486,23.90126632
9.682213542,21.47733297,2.00816482,4.200416946,21.97617027
9.692245542,19.77871682,2.233684911,4.727573842,20.45817543
9.702277542,18.39752262,3.143964826,4.913563247,19.30016729
9.712309542,17.32064209,4.606258151,4.633027874,18.51181255
9.722341542,16.55074856,6.01408934,4.112643222,18.0834284
9.732373542,15.79421124,6.658061911,3.506576981,17.49522732
9.742406542,14.89401251,6.50937131,3.222721266,16.57074095
9.752438542,13.9315994,5.550473551,3.100708879,15.31377204
9.762470542,12.88801291,4.212382688,2.939634167,13.87395019
9.772502542,12.06850225,2.584281038,2.797914617,12.65525903
9.782534542,11.50242278,0.619023671,2.566109938,11.80143382
9.792566542,11.21615947,-1.493246731,2.63993396,11.61900471
9.802598542,11.11102302,-3.546464932,2.884208118,12.01461205
9.812630542,11.16412744,-5.466184768,3.302550085,12.86171662
9.822663542,11.41545948,-7.468477814,3.680805296,14.12937378
9.832695542,11.71407912,-9.731149712,3.931690316,15.72809947
9.842727542,11.8330758,-12.03973512,4.500839577,17.47096052
9.852759542,11.62014945,-14.33948246,4.749438628,19.0579589
9.862791542,10.99306948,-16.47393602,4.735798536,20.36334777
9.872823542,10.20080918,-18.73841763,4.656154781,21.83722924
9.882855542,9.324721447,-20.67141124,4.13345931,23.05088194
9.892887542,8.380169832,-22.13260002,3.276948051,23.89178977
9.902920542,7.533066743,-23.34284736,2.70761168,24.67725225
9.912952542,6.595935829,-24.18119308,2.529464268,25.19195621
9.922984542,5.343395578,-24.17592356,2.805381804,24.91781137
9.933016542,4.260324009,-23.84177156,3.1425536,24.42245023
9.943048542,3.187035416,-23.01678323,3.683095651,23.52646804
9.953080542,2.141769605,-21.74110788,4.324063045,22.27016996
9.963112542,1.227038789,-20.36492124,4.791246513,20.95690064
9.973144542,0.343598764,-19.0962684,5.066648616,19.75997103
9.983177542,-1.015204691,-17.39989759,5.609553233,18.30994713
9.993209542,-2.511600147,-16.03889616,5.528939425,17.15002905
10.00324154,-4.192908536,-14.99123182,5.036857052,16.36115652
10.01327354,-5.950261134,-14.49676788,4.394611748,16.2749654
10.02330554,-7.593183721,-14.37590125,4.193285097,16.79007492
10.03333754,-8.347715446,-14.31679526,4.179083964,17.09151024
10.03333754,-8.347715446,-14.31679526,4.179083964,17.09151024
0.005413708,0.212287257,0.36586328,-0.636009833,0.76382611
0.015444708,0.216017196,0.428244154,-0.634835127,0.795658295
0.025476708,0.087289574,0.413302472,-0.547211092,0.691287482
0.035507708,-0.029641875,0.353718394,-0.463593569,0.583878704
0.045538708,-0.030400844,0.305670928,-0.279567075,0.415351269
0.055570708,0.072018401,0.288755061,-0.164811959,0.340189825
0.065601708,-0.046756675,0.369818081,-0.050374348,0.376150468
0.075632708,-0.066174694,0.387282252,0.066648318,0.398508007
0.085664708,0.282248023,0.418254807,0.276161656,0.57520978
0.095695708,0.089220325,0.558634468,0.443636438,0.71892004
0.105726708,-0.045391935,0.473496926,0.387075151,0.613259275
0.115758708,0.054654509,0.436604174,0.591546435,0.737249961
0.125789708,-0.024144323,0.579864356,0.744587365,0.944052946
0.135820708,-0.286438138,0.65078867,0.500282509,0.869399384
0.145852708,-0.204163721,0.700105841,0.361521649,0.813958793
0.155883708,-0.008178501,0.809351856,0.30755945,0.865858031
0.165914708,0.1358928,0.848332612,0.13019118,0.868956165
0.175946708,0.187355899,0.836227779,0.034288073,0.857644917
0.185977708,0.246562466,0.802839666,-0.141768667,0.851729378
0.196008708,0.425044631,0.874990141,-0.310704083,1.021179569
0.206040708,0.496875336,0.948428904,-0.394611043,1.141104886
0.216071708,0.384687733,0.889215905,-0.39906896,1.047829
0.226102708,0.110481386,0.866937575,-0.391440682,0.957607802
0.236134708,-0.223468888,0.865287929,-0.378427119,0.970499165
0.246165708,-0.343743775,0.815723421,-0.345841756,0.950353094
0.256196708,-0.439145776,0.790125992,-0.324392999,0.960405599
0.266228708,-0.539247769,0.756577519,-0.366292393,0.998683041
0.276259708,-0.514920428,0.703247039,-0.425186133,0.969784869
0.286290708,-0.626875897,0.708091018,-0.563930036,1.101082815
0.296322708,-0.749574455,0.630852735,-0.657258614,1.179756722
0.306353708,-1.073097973,0.677697849,-0.814246999,1.507916381
0.316384708,-1.249162899,0.643058213,-1.00436103,1.727041659
0.326416708,-1.221696188,0.626601663,-1.071038584,1.741348578
0.336447708,-0.940512359,0.604113929,-1.269203646,1.691270242
0.346478875,-1.004278584,0.665448005,-1.491491396,1.917274917
0.356510875,-1.160998582,0.567979744,-1.855726154,2.261468164
0.366541875,-1.324083273,0.600199255,-2.263756557,2.690358602
0.376572875,-1.434136643,0.634234618,-2.658047757,3.086133396
0.386604875,-1.452901527,0.624502951,-2.750343717,3.17258843
0.396635875,-1.479821523,0.523718259,-2.909150001,3.305647634
0.406666875,-1.441425197,0.283588644,-3.263872508,3.579244734
0.416697875,-1.537374498,0.104170413,-3.65340232,3.965062463
0.426729875,-1.466001629,0.083921724,-3.734048873,4.012396368
0.436760875,-1.645516997,0.295123884,-3.691272982,4.052199467
0.446791875,-2.105723274,0.607647182,-3.972574925,4.537031755
0.456823875,-2.234556146,0.349687177,-4.405882841,4.952507032
0.466854875,-1.598995965,-0.165364448,-3.765456607,4.094239484
0.476885875,-1.232903547,-0.054702676,-2.817492557,3.075923901
0.486917875,-0.768728179,-0.161146778,-2.119458969,2.26031361
0.496948875,-0.358992144,-0.605997975,-1.354641992,1.52681493
0.506979875,0.001828424,-1.067622202,-0.959940902,1.435725268
0.517011875,0.088714541,-1.280770608,-0.781521303,1.503003382
0.527042875,0.091982549,-1.482305859,-0.712877914,1.647387741
0.537073875,-0.004017037,-1.502978836,-0.935283194,1.770230542
0.547105875,-0.072451095,-1.337965733,-1.328321335,1.88675357
0.557136875,-0.186512731,-1.087271332,-1.801525973,2.112449237
0.567167875,-0.44289618,-0.86577281,-2.392060255,2.582183543
0.577199875,-0.560770201,-0.835132084,-2.921633806,3.089960018
0.587230875,-0.825066687,-0.868390169,-3.272991241,3.485298866
0.597261875,-0.980119643,-0.853838789,-3.578212974,3.807004502
0.607293875,-1.009866768,-1.011857745,-3.936830896,4.188355822
0.617324875,-1.081528489,-1.268337089,-4.037206539,4.367770539
0.627355875,-1.164839033,-1.451493225,-4.006875862,4.418001441
0.637386875,-1.090357785,-1.886179915,-3.839409267,4.414478258
0.647418875,-0.889750341,-2.567284644,-3.434301302,4.379158772
0.657449875,-0.732536838,-3.053800761,-3.000664188,4.343534836
0.667480875,-0.706335465,-3.518952905,-2.71792383,4.502116089
0.677512875,-0.641357111,-4.133880017,-2.396547993,4.821176747
0.687543875,-0.505839703,-4.591044281,-1.983470274,5.026700281
0.697574875,-0.369879659,-5.071781301,-1.617570814,5.336320068
0.707606875,-0.260768277,-5.474756202,-1.166048237,5.603625974
0.717637875,-0.076623083,-5.933222347,-0.622710633,5.966302628
0.727668875,0.190108184,-6.575402747,0.057226992,6.578399299
0.737700875,0.43092576,-7.387949376,0.673043465,7.431048411
0.747731875,0.724493993,-8.42257267,1.355350674,8.561635205
0.757762875,1.49102245,-9.541002352,2.41728222,9.954753998
0.767794875,2.007404682,-9.994940414,3.351505898,10.73131396
0.777825875,2.674752082,-10.03487222,4.097788371,11.16444484
0.787856875,3.163322033,-9.826215498,4.762855357,11.36863705
0.797888875,3.43117655,-9.1723471,5.311689051,11.14086911
0.807919875,3.713963102,-8.205301831,5.663222487,10.63920058
0.817950875,3.876893135,-6.917061989,5.979533465,9.931307437
0.827982875,3.958908813,-5.566758631,6.269707389,9.272054324
0.838013875,4.00932029,-4.384779071,6.594552963,8.876320492
0.848044875,3.940671347,-3.310670114,6.902461492,8.610075604
0.858076875,3.830343159,-2.512546227,7.129763814,8.474547144
0.868107875,3.801021127,-2.036582873,7.176706431,8.372606918
0.878138875,3.862736441,-1.741205512,7.172421591,8.330435819
0.888169875,4.268834924,-1.55595461,7.160317855,8.480218048
0.898201875,4.878905631,-1.409312873,7.015792226,8.660902002
0.908232875,5.028580903,-1.192536124,6.920407766,8.637176156
0.918263875,5.00557094,-0.699700629,6.901406654,8.554223238
0.928295875,4.92163299,-0.150288645,6.644103438,8.269774389
0.938326875,5.031919663,0.349076436,6.360583645,8.117825704
0.948357875,5.122879534,0.923408083,6.152530357,8.059169126
0.958389875,5.128653075,1.463834651,6.051643082,8.066491074
0.968420875,5.110932503,1.931283875,5.889710877,8.033690476
0.978451875,5.251941032,2.267884691,5.692543935,8.070392929
0.988483875,5.680474697,2.588307431,5.494326832,8.315933831
0.998514875,5.943458483,3.036411726,5.193834912,8.4569744
1.008545875,6.104024779,3.471169167,4.912858658,8.569965816
1.018577875,6.170311155,3.915785598,4.575705864,8.62225033
1.028608875,6.090362175,4.336182861,4.196567431,8.573574018
1.038639875,6.067294909,4.669080051,3.956381354,8.617733429
1.048671875,6.008481275,4.946876589,3.761389576,8.644159113
1.058702875,5.979587259,5.040417421,3.546019374,8.586939209
1.068733875,5.947117671,4.956170154,3.544548215,8.514437928
1.078765875,5.986856518,4.755002546,3.466360416,8.394531239
1.088796875,5.886384396,4.561722833,3.304426457,8.147273818
1.098827875,5.782019783,4.332883862,3.17493168,7.892137005
1.108859875,5.744959545,3.91534004,2.980787748,7.564360079
1.118890875,5.673007218,3.519832034,2.876234854,7.269453582
1.128921875,5.59218174,3.118898397,2.739884802,6.964696157
1.138953875,5.549286566,2.608849869,2.561323992,6.645378817
1.148984875,5.584055865,2.025143965,2.380395645,6.39915396
1.159015875,5.484765465,1.408118287,2.229300084,6.08565758
1.169047875,5.31740412,0.765356675,2.198020989,5.804468424
1.179078875,5.112528208,0.172233245,2.196302931,5.566988013
1.189109875,4.857138201,-0.426849082,2.210163317,5.353392712
1.199141875,4.536657281,-1.111844548,2.319191669,5.214988743
1.209172875,4.241394818,-1.69857931,2.476157835,5.196725824
1.219203875,3.946791043,-2.125205027,2.55664125,5.160433163
1.229235875,3.624826393,-2.418889035,2.565093985,5.056688411
1.239266875,3.47917839,-2.691400275,2.469031248,5.044247517
1.249297875,3.323857924,-2.897826283,2.289927524,4.968822469
1.259329875,3.160765923,-3.094033113,2.064316217,4.881074017
1.269360875,3.030685255,-3.368223088,1.729580662,4.849889602
1.279391875,2.998230869,-3.823070392,1.429569383,5.064476694
1.289423875,3.073934186,-4.427140979,1.237093077,5.529832538
1.299454875,2.939199719,-4.791741187,0.986919955,5.707336471
1.309485875,2.849439696,-5.096121506,0.921546915,5.910922915
1.319517875,2.744948198,-5.40970008,0.732754355,6.110362061
1.329548875,2.507652692,-5.743555044,0.424568667,6.281481125
1.339579875,2.05143597,-5.959346538,0.301199434,6.309748156
1.349612375,1.558836118,-6.09335478,0.276061084,6.295645498
1.359643375,1.195334601,-6.345893101,0.140698042,6.459023145
1.369675375,0.813980366,-6.591948028,-0.093879377,6.642676884
1.379706375,0.360568553,-6.696381054,-0.127013218,6.707284194
1.389737375,-0.051305809,-6.71397708,-0.10226898,6.714951933
1.399769375,-0.441409818,-6.738454694,-0.141569277,6.754380516
1.409800375,-0.656840538,-6.752718977,-0.174214282,6.786825745
1.419831375,-0.8092985,-6.524595121,-0.37491879,6.585276733
1.429863375,-0.958869692,-6.006752838,-0.417902842,6.097143063
1.439894375,-1.35223177,-5.365627277,-0.797480693,5.590569049
1.449925375,-1.630217173,-5.38264092,-0.612739084,5.657373992
1.459957375,-1.878922643,-4.297026397,0.036127607,4.689999079
1.469988375,-2.90715727,-3.324858382,-0.857968969,4.499150743
1.480019375,-3.400818391,-3.100465634,-1.411338934,4.813556946
1.490051375,-3.744955099,-2.43235985,-0.985171638,4.572923167
1.500082375,-4.095776344,-1.697545522,-0.881521554,4.520412029
1.510113375,-4.671228903,-1.21955143,-1.154087173,4.963829404
1.520145375,-5.243728033,-0.822766392,-1.251559088,5.453441883
1.530176375,-5.79090755,-0.517434731,-1.439986782,5.989650315
1.540207375,-6.48958901,-0.370924557,-1.679264202,6.713589115
1.550239375,-7.106842729,-0.195740807,-1.794985278,7.332632555
1.560270375,-7.49181873,-0.003690763,-1.768095102,7.697630921
1.570301375,-7.759289085,0.011565208,-1.569785614,7.916497188
1.580333375,-7.948823072,-0.091472672,-1.357404217,8.064409568
1.590364375,-8.155403447,-0.165283245,-1.144628717,8.23699574
1.600396375,-8.372346842,-0.245130191,-0.893977147,8.423507321
1.610427375,-8.576554416,-0.468958975,-0.683491563,8.616517214
1.620458375,-8.664545656,-0.91125026,-0.550734003,8.72972144
1.630490375,-8.725244433,-1.369758214,-0.441367864,8.843129173
1.640521375,-8.797330661,-1.931306679,-0.333059816,9.012985138
1.650552375,-8.856266502,-2.637882756,-0.216415903,9.24330664
1.660584375,-8.869827949,-3.370183659,-0.018080687,9.488535854
1.670615375,-8.678253869,-4.06752786,0.444962586,9.594522646
1.680646375,-8.400198884,-4.550661655,1.246526974,9.634609088
1.690678375,-8.250265165,-4.577124984,1.793680179,9.603865732
1.700709375,-8.164414006,-4.143364493,1.872974271,9.345221132
1.710740375,-8.145895874,-3.665615107,1.60909776,9.076428224
1.720772375,-7.984436123,-3.30149437,1.081153682,8.707466829
1.730803375,-7.608477114,-2.954677884,0.430562064,8.173397646
1.740834375,-7.120650929,-2.482200932,-0.267974385,7.545647844
1.750866375,-6.733904391,-2.127083153,-0.908319343,7.120041792
1.760897375,-6.286471356,-2.026054961,-1.392136678,6.750012248
1.770929375,-5.855618101,-2.161874086,-1.774113057,6.489178689
1.780960375,-5.354573116,-2.585329444,-1.89706363,6.24133255
1.790991375,-4.918538058,-3.094928321,-1.882135688,6.108439465
1.801023375,-4.547216476,-3.658075415,-1.725395225,6.085694874
1.811054375,-4.026303236,-4.317913821,-1.544151421,6.102450419
1.821085375,-3.449108207,-5.032775111,-1.309633634,6.240217383
1.831117375,-2.908892139,-5.630415514,-0.830658964,6.391652889
1.841148375,-2.324464104,-6.037229696,-0.312390968,6.47679426
1.851179375,-1.698985106,-6.293296811,0.07802985,6.519066175
1.861211375,-1.099426231,-6.459461231,0.349555907,6.561674083
1.871242375,-0.540988485,-6.401736934,0.647588489,6.457110434
1.881274375,0.0078341,-6.12153836,0.896579377,6.186852822
1.891305375,0.860567472,-6.106800452,1.025600456,6.251835285
1.901336375,1.680462881,-6.545384896,1.062014649,6.840606263
1.911368375,2.309568906,-7.256917951,1.323488027,7.729721032
1.921399375,2.712772433,-7.637999121,1.522681614,8.247225239
1.931430375,3.191509121,-7.645108166,1.59478363,8.436631091
1.941462375,3.751278863,-7.330775886,1.700939831,8.408660089
1.951493375,4.300150857,-6.632962153,1.829775041,8.113911573
1.961524375,5.063474747,-6.017067912,1.820472121,8.072050638
1.971556375,5.995343167,-5.80574486,1.762771797,8.529840413
1.981587375,6.917115784,-5.86739264,1.782855814,9.243990589
1.991618375,7.880915263,-6.167077644,1.840214514,10.17487403
2.001650375,8.624647765,-6.240480081,1.921221986,10.81754291
2.011681375,9.2156393,-6.082757871,2.08729212,11.2376483
2.021713375,9.577566746,-5.542659917,2.444787523,11.33260119
2.031744375,9.809467903,-4.583168666,3.046581496,11.24778887
2.041775375,9.913270015,-3.274719093,3.811647856,11.11419664
2.051807375,9.825076461,-1.785670078,4.457636839,10.93577941
2.061838375,9.630550706,-0.369301955,4.840397915,10.78486638
2.071869375,9.469549377,0.716231877,4.965043888,10.71620335
2.081901375,9.461641603,1.675864631,4.967452941,10.81696689
2.091932375,9.224892519,2.863298475,4.903807168,10.8325641
2.101964375,8.797738797,4.138066331,4.858443592,10.86868322
2.111995375,8.282990862,5.285946684,4.607317374,10.85249019
2.122026375,7.912231781,6.150839342,4.140328034,10.84336445
2.132058375,7.38645892,6.760924959,3.570203458,10.63090939
2.142089375,6.830313867,7.146690334,3.159671617,10.37843413
2.152120375,6.239151009,7.492058465,2.728989393,10.12449152
2.162152375,5.655464401,7.669852413,2.233070661,9.787620661
2.172183375,5.171779799,7.629941658,1.919984715,9.415394697
2.182214375,4.824146748,7.369394991,1.647143985,8.960661677
2.192246375,4.597291738,6.898685945,1.421478883,8.411156954
2.202277375,4.465377676,6.321684458,1.324417442,7.852220943
2.212309375,4.514609478,5.528797338,1.336557431,7.261933937
2.222340375,4.728994423,4.450776594,1.454904199,6.655039201
2.232371375,4.958245915,3.234279165,1.688344928,6.15591365
2.242403375,5.138940082,2.038083853,2.035148259,5.891037208
2.252434375,5.303808174,0.928977556,2.370736045,5.883346823
2.262465375,5.355838453,0.025187466,2.738992225,6.015622856
2.272497375,5.354849104,-0.56612625,3.015084884,6.171356797
2.282528375,5.329466926,-0.94613738,3.142390463,6.258834674
2.292560375,5.360552478,-1.373939558,3.287501106,6.436683642
2.302591375,5.328744795,-1.738715183,3.359901623,6.535104474
2.312622375,5.203022057,-1.984432726,3.342380441,6.494683886
2.322654375,5.095061406,-2.289299533,3.207017691,6.440924278
2.332685375,4.990972781,-2.674257408,3.006596189,6.411012605
2.342716375,4.756904938,-2.948312312,2.80448601,6.259858773
2.352747833,4.548190329,-3.339695692,2.455648141,6.15384517
2.362778833,4.415100392,-3.954763722,2.095763858,6.286930389
2.372810833,4.185836329,-4.586379372,1.680809036,6.432823683
2.382841833,3.91240386,-5.186483792,1.324589642,6.630313402
2.392872833,3.620592716,-5.505931216,1.046589767,6.672279994
2.402904833,3.22974728,-5.346053138,0.791491975,6.295872552
2.412935833,2.782055506,-4.809472868,0.731968489,5.604162737
2.422966833,2.514941831,-4.303584634,0.655459718,5.027464625
2.432998833,2.373121416,-4.428836086,0.290487335,5.032959093
2.443029833,2.124265088,-4.987619988,-0.033242737,5.421250814
2.453060833,1.625502563,-5.183537965,-0.144711571,5.434359746
2.463092833,1.119587431,-4.978453308,-0.293874042,5.111245964
2.473123833,0.653007104,-4.862482556,-0.464065513,4.928033247
2.483155833,0.201355303,-4.807427512,-0.433083237,4.831093493
2.493186833,-0.205110385,-4.511153773,-0.388483088,4.532493546
2.503217833,-0.389343286,-4.224685814,-0.380277251,4.259597306
2.513249833,-0.434183829,-4.265761335,-0.470749977,4.313564756
2.523280833,-0.548000466,-4.607768487,-0.737388785,4.698465405
2.533311833,-0.902767412,-5.007387085,-0.921923402,5.170962887
2.543343833,-1.471549467,-5.286731381,-1.021025521,5.581888537
2.553374833,-2.135224816,-5.53329677,-1.034064812,6.020452491
2.563406833,-2.793080431,-5.698967101,-0.787066729,6.39523247
2.573437833,-3.431059021,-5.606234939,-0.376268254,6.583586712
2.583468833,-4.054311399,-5.23095596,0.101803606,6.618965565
2.593500833,-4.539898685,-4.630093741,0.693873879,6.521495924
2.603531833,-4.785791645,-3.991235729,1.135669613,6.334312101
2.613562833,-4.975971165,-3.268176059,1.511968346,6.142256268
2.623594833,-5.106707305,-2.377059224,1.773879168,5.905549708
2.633625833,-5.287557592,-1.442032723,1.88960726,5.797269984
2.643657833,-5.594900696,-0.592372647,1.898527919,5.937863876
2.653688833,-5.930156652,0.141676866,1.737988958,6.181216375
2.663719833,-6.260366462,0.830871803,1.559480481,6.504960842
2.673751833,-6.467970684,1.344096538,1.282393795,6.729470568
2.683782833,-6.652455601,1.609102292,0.9438748,6.909071959
2.693813833,-6.86009783,1.806444651,0.614306138,7.120502548
2.703845833,-7.042822149,1.990889221,0.291790094,7.324624576
2.713876833,-7.246283619,2.149728835,0.025992043,7.55848106
2.723908833,-7.357011173,2.188410505,-0.145910104,7.676981418
2.733939833,-7.400822605,2.034428174,-0.225264275,7.678659859
2.743970833,-7.373719007,1.691608844,-0.162640888,7.567015563
2.754002833,-7.360802507,1.088265066,-0.135815617,7.442054843
2.764033833,-7.259108902,0.184292835,-0.180174934,7.263682875
2.774064833,-7.180674936,-0.745157468,-0.214695433,7.222426623
2.784096833,-7.234267007,-1.525397061,-0.092841798,7.393921484
2.794127833,-7.392859867,-2.299427788,0.186027412,7.744440029
2.804159833,-7.649889434,-3.065373277,0.498459347,8.256257227
2.814190833,-7.957484552,-3.745260032,0.888188842,8.839536895
2.824221833,-8.049541946,-4.353875951,1.254639694,9.237179337
2.834253833,-7.799731352,-4.657041804,1.7006884,9.242087889
2.844284833,-7.241607016,-4.47183651,2.181902554,8.786290042
2.854315833,-6.514073056,-4.236837498,2.103779368,8.050455105
2.864347833,-5.801289282,-4.180470924,1.696308836,7.34906512
2.874378833,-5.305075266,-3.959497628,1.583537096,6.806543526
2.884410833,-4.966057795,-3.894928872,1.189771268,6.422441639
2.894441833,-4.809710265,-4.169378756,0.45605797,6.381615855
2.904472833,-4.774866707,-4.451218643,-0.129019691,6.529115221
2.914504833,-4.708149392,-4.588956825,-0.65333601,6.606969303
2.924535833,-4.613026888,-4.707109172,-1.10490478,6.682642322
2.934566833,-4.223660797,-4.676783173,-1.255259206,6.425518427
2.944598833,-3.614530615,-4.533045164,-1.614245211,6.018232101
2.954629833,-2.875264217,-4.696698205,-2.294809657,5.965925721
2.964661833,-2.135579742,-5.166873985,-2.457080416,6.106924904
2.974692833,-1.686217126,-5.971541491,-2.63698667,6.742131315
2.984723833,-1.39228929,-6.76798898,-2.511958289,7.352147901
2.994755833,-1.168808123,-7.399457281,-1.929834934,7.735783306
3.004786833,-0.990893138,-7.672103006,-1.081131755,7.811010154
3.014817833,-0.741007115,-7.403276682,-0.236874214,7.444038324
3.024849833,-0.288871749,-6.807938912,0.515857737,6.833563369
3.034880833,0.383686105,-6.261595547,0.907068916,6.338577745
3.044912833,1.231355204,-6.089477491,1.052053552,6.301173576
3.054943833,2.092793326,-6.597321619,0.97134385,6.989130513
3.064974833,2.808864405,-7.553995682,0.827416975,8.101678151
3.075006833,3.298624265,-8.391059686,0.690759652,9.042563441
3.085037833,3.802537894,-8.835093734,0.850517278,9.656166702
3.095068833,4.114058541,-9.076195486,0.825721867,9.999230909
3.105100833,4.567453981,-8.508889852,1.060722634,9.715347389
3.115131833,5.142284689,-7.186571268,1.473220017,8.958809945
3.125163833,5.81622541,-5.896123518,1.674717407,8.449699933
3.135194833,6.517200147,-4.6618488,1.907632472,8.23685581
3.145225833,7.183956394,-3.279132571,2.275467652,8.218253642
3.155257833,7.758350022,-1.811148151,2.338205353,8.3029788
3.165288833,8.191322308,-0.053832391,2.267087423,8.499432008
3.175320833,8.443852442,1.817622773,2.027049572,8.871940406
3.185351833,8.587637229,3.471390191,1.732027137,9.423268066
3.195382833,8.600591151,4.750462768,1.448421391,9.931514949
3.205414833,8.401624435,5.694543682,1.151955278,10.21479916
3.215445833,8.047766147,6.487379347,0.86258213,10.37288189
3.225476833,7.655515625,7.221807759,0.615515049,10.54230931
3.235508833,7.190532172,7.835589986,0.415786442,10.64298369
3.245539833,6.843123363,8.132266599,0.258394453,10.63150343
3.255571833,6.540863829,7.997112302,0.081065944,10.33166378
3.265602833,6.31254526,7.572027326,-0.042785246,9.858278555
3.275633833,6.097096413,7.064886618,-0.013086215,9.332061875
3.285665833,5.983927063,6.484608936,0.133863816,8.824707115
3.295696833,5.996131371,5.854496021,0.317258227,8.38626066
3.305727833,6.209806758,4.986200284,0.592964824,7.985956456
3.315759833,6.526568556,3.985468036,1.051121213,7.719126141
3.325790833,7.126620936,2.860866033,1.428292351,7.81110104
3.335822833,7.68326651,1.720043854,1.707467954,8.056462123
3.345853833,8.045581042,0.603575912,2.014383772,8.315853544
3.355885458,8.325668519,-0.446113318,2.490668285,8.701678108
3.365917458,8.463621293,-1.27117942,2.924452164,9.044401748
3.375948458,8.493732115,-1.863430445,3.166662548,9.254383283
3.385979458,8.445347575,-2.385980321,3.282799653,9.369822373
3.396011458,8.338286226,-2.779792049,3.276146106,9.380159611
3.406042458,8.211697515,-3.027391226,3.031273777,9.262056706
3.416074458,8.099723336,-3.286298919,2.544336369,9.103786369
3.426105458,7.976969229,-3.608300992,1.95592755,8.970926747
3.436136458,7.737698826,-3.887602018,1.294877601,8.755691895
3.446168458,7.345966367,-4.232439807,0.797040982,8.515400338
3.456199458,6.795264487,-4.517398599,0.472176843,8.173460744
3.466230458,6.06984605,-4.588694869,0.305226996,7.615268556
3.476262458,5.131038154,-4.438191047,0.251549556,6.788841542
3.486293458,4.181895306,-4.486167451,0.071444789,6.133437136
3.496325458,3.225073893,-5.038814115,-0.343445421,5.992387175
3.506356458,2.233398398,-5.604862597,-0.722308888,6.076535466
3.516387458,1.756026449,-5.549537412,-0.696275915,5.862234602
3.526419458,1.700691909,-5.147444272,-0.581835087,5.45225344
3.536450458,1.883111004,-4.881949691,-0.271785454,5.239599906
3.546482458,2.030711684,-4.603693562,0.090104131,5.032484785
3.556513458,1.990322334,-4.043684084,0.256878709,4.514282959
3.566544458,1.911186994,-3.558694968,0.084473555,4.040307091
3.576576458,1.851426989,-3.574844978,-0.466839359,4.052806126
3.586607458,1.757001765,-4.308679313,-1.288890344,4.82835489
3.596638458,1.407416329,-5.375196245,-1.983082604,5.899675585
3.606670458,0.841400884,-6.401359788,-2.289864667,6.850462961
3.616701458,0.271772152,-7.305403063,-2.261891295,7.65238043
3.626733458,-0.41737133,-7.930822418,-1.978170358,8.18445484
3.636764458,-1.125358633,-8.145297704,-1.345848072,8.332083399
3.646795458,-1.730034991,-7.629224789,-0.417987919,7.834079771
3.656827458,-2.03861595,-6.659769883,0.394129525,6.975946385
3.666858458,-2.134667577,-5.775676723,1.148980507,6.263817005
3.676889458,-2.219099616,-4.926883205,1.772781353,5.686944254
3.686921458,-2.571531769,-3.945555527,2.138382897,5.172317224
3.696952458,-3.228823712,-2.951178033,2.218735627,4.904848839
3.706984458,-4.159685242,-2.008757728,2.180626107,5.108152223
3.717015458,-5.083642378,-1.201739641,2.094587252,5.628045287
3.727046458,-5.868168565,-0.516063559,1.928295655,6.198390762
3.737078458,-6.507328293,0.124090195,1.850092362,6.766355122
3.747109458,-6.928420206,0.525504473,1.833312022,7.18611122
3.757140458,-7.073292575,0.65161956,1.747911099,7.315139719
3.767172458,-7.101660926,0.615261573,1.651803923,7.317143631
3.777203458,-7.104197448,0.496152036,1.541773358,7.286484291
3.787235458,-7.13295347,0.33587927,1.549617398,7.307061939
3.797266458,-7.456709123,0.213925062,1.659398872,7.642112241
3.807297458,-7.875068048,-0.008565586,1.795418556,8.077146644
3.817329458,-8.205687162,-0.592484036,1.857671522,8.4341735
3.827360458,-8.491991399,-1.41561588,1.838587965,8.803311419
3.837391458,-8.781571831,-2.265082997,1.897801841,9.265433429
3.847423458,-9.007372588,-3.056084098,2.273470244,9.779625652
3.857454458,-9.086758481,-3.704839107,2.735263163,10.18708384
3.867486458,-8.983948057,-3.99909965,2.995504605,10.2799401
3.877517458,-8.916833716,-3.986151575,3.064041282,10.23658522
3.887548458,-8.770765591,-3.9498544,3.164569829,10.12631132
3.897580458,-8.392065407,-3.809974675,3.301134767,9.78979875
3.907611458,-7.961957672,-3.677454549,3.288702124,9.366536372
3.917643458,-7.470162982,-3.573598644,3.227297297,8.887597543
3.927674458,-7.121463692,-3.273056145,2.776982462,8.315032966
3.937705458,-6.928672221,-2.997186264,2.026347614,7.816374409
3.947737458,-6.806662465,-2.786481264,1.420792127,7.490913296
3.957768458,-6.790803646,-2.781143633,0.77476923,7.379027133
3.967799458,-6.794195616,-2.823287732,0.611459128,7.382813146
3.977831458,-6.842820477,-3.138115271,0.417357296,7.539638363
3.987862458,-6.856315266,-3.397244573,0.572095673,7.67317556
3.997894458,-6.781045228,-3.666188134,0.594228553,7.731533961
4.007925458,-6.425113517,-3.933059442,0.876611647,7.584160353
4.017956458,-6.075480427,-4.049952884,1.240098253,7.406174752
4.027988458,-5.510821828,-4.462634162,1.252153458,7.200843643
4.038019458,-4.841343117,-5.213696149,1.105634513,7.20025405
4.048050458,-4.159370661,-6.154272242,1.101210509,7.509200737
4.058082458,-3.597435696,-6.861194767,1.291029256,7.853934922
4.068113458,-3.167333223,-7.421831067,1.47640061,8.203373385
4.078145458,-2.772531561,-7.896027392,1.74023312,8.54766583
4.088176458,-2.35052339,-8.290745439,2.109204122,8.871874783
4.098207458,-2.010733502,-8.375151166,2.364563724,8.931817725
4.108239458,-1.640781922,-8.149664404,2.408961925,8.655188777
4.118270458,-1.012652382,-8.08197879,2.191163959,8.434752249
4.128301458,-0.259008265,-8.262869423,2.000130453,8.505446385
4.138333458,0.52184704,-8.759820188,1.780710178,8.954200288
4.148364458,1.255685468,-9.378479578,1.662908517,9.607179083
4.158396458,1.932212412,-10.03169601,1.486463083,10.32365934
4.168427458,2.453402225,-10.4109815,1.375034887,10.78417541
4.178458458,2.893991387,-10.42996156,1.232307131,10.89393709
4.188490458,3.416582192,-10.09777657,1.082352069,10.71492471
4.198521458,4.124575635,-9.350758513,1.231795207,10.29398506
4.208552458,4.997583643,-8.384909,1.427167346,9.86505691
4.218584458,5.978289177,-7.382429019,1.551925001,9.625417961
4.228615458,7.135777091,-6.251271703,1.853523508,9.666088246
4.238647458,8.270622246,-4.678936703,2.647607845,9.864353416
4.248678458,9.138794607,-2.806326129,3.270395077,10.10388624
4.258709458,9.591074983,-0.877572929,3.463758405,10.23506111
4.268741458,10.00065314,0.851056391,3.403063138,10.59802807
4.278772458,10.07168512,2.389132555,3.115866616,10.80996856
4.288804458,9.965859872,3.624764412,2.502210396,10.89579446
4.298835458,9.644726111,4.572654203,1.762264259,10.81829393
4.308866458,9.128975962,5.204785577,0.999679749,10.55591562
4.318898458,8.551954011,5.509537194,0.27906436,10.17687547
4.328929458,7.937512218,5.647799286,-0.313056272,9.746781069
4.338960458,7.229410309,5.613007768,-0.923419047,9.199072364
4.348992458,6.586321837,5.439044332,-1.274974702,8.636457554
4.359021833,6.094703733,5.086912141,-1.505733898,8.080180895
4.369053833,5.666805076,4.607493083,-1.690478869,7.496625313
4.379084833,5.280997601,4.029620361,-1.742708977,6.867591317
4.389115833,4.966815594,3.382149986,-1.748682346,6.258281364
4.399147833,4.780092656,2.745905095,-1.559835846,5.729080944
4.409178833,4.738138299,2.122839829,-1.097922328,5.30677274
4.419209833,4.844317011,1.549452506,-0.538215151,5.114478069
4.429241833,5.158128304,0.903543922,0.08939004,5.237429694
4.439272833,5.623823948,0.159367032,0.829780858,5.686943812
4.449304833,6.188439277,-0.556077225,1.688660385,6.438755817
4.459335833,6.705647137,-1.050038309,2.533890903,7.244921468
4.469366833,7.20465963,-1.322186437,3.100556266,7.954165357
4.479398833,7.729086462,-1.516277159,3.368850202,8.566622767
4.489429833,8.237831061,-1.759897891,3.501755075,9.12257583
4.499460833,8.671085182,-1.92131788,3.469997677,9.535201336
4.509492833,8.980792315,-1.885809494,3.134024267,9.697062244
4.519523833,9.007752072,-1.821613498,2.492658385,9.522143611
4.529555833,8.692866061,-1.804947764,1.859301142,9.070874132
4.539586833,8.103086654,-1.64589882,1.210534731,8.356697349
4.549617833,7.425361615,-1.300672776,0.615133811,7.563473699
4.559649833,6.746322123,-0.934578604,0.157032824,6.812558892
4.569680833,6.218660027,-0.630782422,-0.409160085,6.263946916
4.579711833,5.958050795,-0.727787145,-1.239604748,6.129001822
4.589743833,5.805882854,-1.560099701,-2.140267894,6.3814523
4.599774833,5.452302309,-2.620835491,-2.59040278,6.580772425
4.609806833,4.835847612,-3.080772797,-2.417126684,6.222466115
4.619837833,4.21903565,-3.065254287,-2.084567317,5.616179
4.629868833,3.845621349,-3.171418088,-1.602614075,5.235940042
4.639900833,3.643367329,-3.403073663,-0.964760177,5.077971843
4.649931833,3.601164465,-3.761996809,-0.537710829,5.235469266
4.659963833,3.674078367,-4.298508081,-0.26328024,5.660860364
4.669994833,3.715302992,-5.124696264,-0.323844531,6.338048864
4.680025833,3.477819497,-6.019788036,-0.454197679,6.967020309
4.690057833,2.793726841,-6.642722325,-0.473150259,7.221810072
4.700088833,1.828349198,-6.827408386,-0.399237945,7.079248335
4.710119833,0.788569536,-6.688239976,-0.354459967,6.743888919
4.720151833,-0.007939642,-6.336824069,-0.241536784,6.341430622
4.730182833,-0.59016737,-5.979962066,-0.131072356,6.010442895
4.740214833,-0.925487646,-5.452779441,0.214230579,5.534909734
4.750245833,-1.273714773,-4.594109976,0.605201438,4.805670044
4.760276833,-1.758388724,-3.747281706,0.759920518,4.208506895
4.770308833,-2.347893312,-2.908596854,0.91966762,3.849458039
4.780339833,-2.989132894,-2.182767357,1.095592212,3.86001439
4.790370833,-3.592266757,-1.618622144,1.249104719,4.133349816
4.800402833,-4.114523102,-1.233236838,1.330004456,4.496563722
4.810433833,-4.530442568,-1.144983058,1.297017974,4.8495517
4.820465833,-4.877804015,-1.33685827,1.252996334,5.21058172
4.830496833,-5.312821072,-1.409040978,1.274084902,5.642229751
4.840527833,-5.595378998,-1.433104609,1.267119699,5.913344847
4.850559833,-5.74748028,-1.560472754,1.415213006,6.121391397
4.860590833,-5.867201436,-1.764766282,1.669297915,6.350197497
4.870622833,-5.943887669,-2.032133726,1.95200933,6.57797146
4.880653833,-5.97987962,-2.359255037,2.32877087,6.837266878
4.890684833,-6.053898354,-2.708124481,2.700550875,7.160768011
4.900716833,-6.162481733,-2.996830754,2.959284905,7.464217496
4.910747833,-6.169455122,-3.251002201,3.369585489,7.745017636
4.920778833,-6.146750384,-3.422596346,3.658566581,7.929805512
4.930810833,-6.163814898,-3.403315153,3.897765064,8.047840743
4.940841833,-6.143720942,-3.299442875,4.042773673,8.060747438
4.950873833,-6.104549859,-3.092915125,4.076030881,7.9652797
4.960904833,-6.048755143,-2.725858794,3.948082693,7.720434048
4.970935833,-5.992171052,-2.418186784,3.771633605,7.481908934
4.980967833,-5.835376795,-2.210089057,3.565239172,7.186587948
4.990998833,-5.597491012,-1.942589758,3.213066343,6.74013026
5.001029833,-5.331821015,-1.668150399,2.893261362,6.291422923
5.011061833,-5.072451392,-1.517646284,2.548558936,5.876067224
5.021092833,-4.838959208,-1.478119107,2.19415861,5.514951887
5.031124833,-4.597253439,-1.569538862,1.875935885,5.207429967
5.041155833,-4.348343316,-1.712339562,1.620745853,4.946414205
5.051186833,-4.095436621,-1.88049379,1.41532615,4.723558629
5.061218833,-3.868989161,-1.959684386,1.278988377,4.521642543
5.071249833,-3.70339426,-1.983094883,1.242105895,4.380710149
5.081280833,-3.540522407,-2.050234952,1.264600718,4.282286451
5.091312833,-3.412961889,-2.214601938,1.260041644,4.259163714
5.101343833,-3.275213767,-2.580673891,1.150379453,4.325537636
5.111375833,-3.188063357,-3.184387212,0.990855424,4.613660624
5.121406833,-3.147015318,-3.900166515,0.92881208,5.096831971
5.131437833,-3.121718509,-4.702615002,0.863647785,5.710131505
5.141469833,-3.063428201,-5.614160255,0.734719604,6.437639366
5.151500833,-3.124283098,-6.299594847,0.830949278,7.080714428
5.161532833,-3.213995758,-6.215046448,1.294926133,7.115715338
5.171563833,-3.041352623,-5.363774294,1.739934327,6.406814491
5.181594833,-2.388879955,-4.322617906,1.877099189,5.283490736
5.191626833,-1.54929697,-3.263546818,1.660650176,3.976030425
5.201657833,-0.815771368,-2.334836479,1.272494167,2.781399956
5.211688833,-0.206122538,-2.046402687,0.766930161,2.195092784
5.221720833,-0.022929856,-2.160588284,0.249976363,2.175121995
5.231751833,-0.296835657,-2.398834839,0.051709559,2.417683576
5.241783833,-0.638123601,-2.725884814,0.011290681,2.799603048
5.251814833,-0.849899812,-2.896584919,0.070712425,3.019525481
5.261845833,-0.821946613,-2.857916697,0.124081132,2.976353509
5.271877833,-0.639420514,-2.597427918,0.098734037,2.676796367
5.281908833,-0.315540315,-2.223083324,0.052292234,2.245974095
5.291939833,0.096296625,-1.789511699,0.019454856,1.792206364
5.301971833,0.510593489,-1.41693355,-0.176101763,1.516383271
5.312002833,0.844933772,-1.072584003,-0.438706065,1.434159173
5.322034833,1.083910645,-0.646082246,-0.694165362,1.440190996
5.332065833,1.295678669,-0.196629583,-0.945300351,1.615871022
5.342096833,1.452306281,0.159108,-1.117085115,1.839126978
5.352129875,1.634103232,0.502034919,-1.158328743,2.064959542
5.362160875,1.876695146,0.770433227,-1.204527301,2.35933
5.372191875,2.125300337,1.002551901,-1.223588347,2.649373564
5.382223875,2.37626868,1.21820657,-1.085523014,2.882540599
5.392254875,2.603462244,1.402856963,-0.890343833,3.08848433
5.402286875,2.789853353,1.601334266,-0.657743056,3.283318305
5.412317875,2.886947246,1.771453743,-0.41144927,3.412008685
5.422348875,2.941240105,1.871746355,-0.196703843,3.491850537
5.432380875,2.935700453,1.909007152,0.044849314,3.502093219
5.442411875,2.911954033,1.888745965,0.230308376,3.478488114
5.452443875,2.899246572,1.859649051,0.421759957,3.470130651
5.462474875,2.853103562,1.828640097,0.5610649,3.434955365
5.472505875,2.856966232,1.765996537,0.633567158,3.417953652
5.482537875,2.89200041,1.648571582,0.570127207,3.377350983
5.492568875,2.870561593,1.536207393,0.527068019,3.298159747
5.502599875,2.81644532,1.319255227,0.513280577,3.152182664
5.512631875,2.726316338,1.06322378,0.437617022,2.958843396
5.522662875,2.673205786,0.949472047,0.460225866,2.873905738
5.532694875,2.67456848,0.977812332,0.501901895,2.891598005
5.542725875,2.741398354,1.051388431,0.399123047,2.963103403
5.552756875,2.90622844,1.221933585,0.267739327,3.164011659
5.562788875,3.100811497,1.46225064,0.064774578,3.428907205
5.572819875,3.236020465,1.631963151,-0.219509446,3.630883718
5.582850875,3.303340336,1.718180346,-0.375380428,3.742340383
5.592882875,3.283198725,1.619570562,-0.500093351,3.694928421
5.602913875,3.187891449,1.349782956,-0.603362196,3.514059171
5.612945875,3.094553222,0.93329514,-0.528286286,3.275116161
5.622976875,3.089057424,0.461792042,-0.301975652,3.137947889
5.633007875,3.115564899,-0.071004494,-0.07479729,3.117271389
5.643039875,3.339004551,-0.858912125,0.142662122,3.450657026
5.653070875,3.708750309,-2.023864594,0.240261506,4.231853299
5.663101875,3.997844837,-3.150024295,0.280692371,5.097470413
5.673133875,4.115817676,-4.126594094,0.311213375,5.836573286
5.683164875,4.066449341,-4.919974719,0.299744354,6.389992814
5.693196875,4.023892429,-5.327749599,0.360793379,6.686314226
5.703227875,3.867179156,-4.816602963,0.553530178,6.201704152
5.713258875,3.71232442,-3.568272707,0.751587359,5.203730034
5.723290875,3.793124169,-2.265725899,0.868049569,4.502756363
5.733321875,4.020302823,-1.04921736,0.97701828,4.268284969
5.743353875,4.271573467,-0.07479349,0.868656803,4.35964432
5.753384875,4.445804121,0.53338769,0.515699278,4.507285487
5.763415875,4.519947985,0.759200141,-0.078712586,4.583940479
5.773447875,4.399866349,0.63203548,-0.887508811,4.532765671
5.783478875,4.113286416,0.410586221,-1.570568556,4.4220348
5.793509875,3.669774524,0.179653947,-1.951773103,4.160401284
5.803541875,3.149413846,-0.241725065,-2.19950969,3.849036432
5.813572875,2.616674028,-0.720381646,-2.247486094,3.523794323
5.823604875,2.17558493,-1.097142309,-2.024011944,3.167572475
5.833635875,1.802625834,-1.382029765,-1.606534487,2.782160892
5.843666875,1.558017508,-1.706358445,-1.100545973,2.559351312
5.853698875,1.376010057,-1.978297827,-0.569282577,2.476115632
5.863729875,1.127838437,-2.210710616,-0.092875419,2.483523064
5.873761875,0.852638648,-2.322974818,0.3575625,2.500211113
5.883792875,0.527193149,-2.374820325,0.766080268,2.550408432
5.893823875,0.18997896,-2.580523033,0.982050686,2.767600888
5.903855875,-0.166853807,-2.806208015,0.950593251,2.967536208
5.913886875,-0.512352331,-2.903590468,0.779449342,3.049735037
5.923917875,-0.859054213,-2.992265832,0.570133347,3.164914057
5.933949875,-1.173768316,-3.126238407,0.433684184,3.367369984
5.943980875,-1.369952341,-3.142806492,0.322207018,3.443518466
5.954012875,-1.420539528,-3.046856022,0.241981173,3.370433067
5.964043875,-1.268771537,-3.096586007,0.248499064,3.355648655
5.974074875,-0.876956048,-3.281412401,0.264557418,3.406862175
5.984106875,-0.422263695,-3.378588447,0.166141762,3.408924993
5.994137875,0.331476317,-3.509542104,0.254665245,3.534348132
6.004168875,0.823701947,-3.566962346,0.156623665,3.66418289
6.014200875,0.963785446,-3.484103208,-0.145698435,3.61788413
6.024231875,0.973482469,-3.481308531,-0.142614759,3.617667228
6.034263875,0.735066928,-3.460094248,-0.154488042,3.540683853
6.044294875,0.708309485,-3.549401988,-0.340502152,3.635367728
6.054325875,0.925229491,-3.580908833,-0.549685013,3.739132425
6.064357875,1.563826132,-3.695323348,-0.495558543,4.043086085
6.074388875,1.686543986,-3.544563417,-0.541170334,3.962477226
6.084420875,1.334251581,-3.382773007,-0.369760376,3.655147498
6.094451875,1.0800661,-3.647416818,0.059735155,3.804439579
6.104482875,0.853411065,-3.947435991,0.299083327,4.049692851
6.114514875,0.665996693,-4.144423132,0.054150333,4.197943181
6.124545875,0.418460666,-4.153035496,-0.304034164,4.185122451
6.134576875,-0.008669667,-4.006708632,-0.59853532,4.051176835
6.144608875,-0.356739212,-3.904966494,-0.84403944,4.011038365
6.154639875,-0.429144114,-3.834375106,-0.990407234,3.983403522
6.164671875,-0.362500473,-3.686635263,-1.009233515,3.839432047
6.174702875,-0.502124966,-3.648995566,-1.013421875,3.820251565
6.184733875,-0.478491105,-3.973426865,-1.459541625,4.259969078
6.194765875,-0.259128717,-4.225868706,-1.978454533,4.673263993
6.204796875,0.071292762,-4.12914845,-2.014179266,4.594765249
6.214828875,0.453067412,-3.818215156,-1.426483222,4.101084179
6.224859875,0.969097057,-3.467698259,-0.410189195,3.62385644
6.234890875,1.277172816,-3.301236216,0.118415473,3.541659665
6.244922875,1.114191036,-3.622561181,-0.167693467,3.793743834
6.254953875,0.631103434,-4.050305471,-0.980128414,4.214726286
6.264984875,-0.372861739,-4.010791157,-2.069372889,4.528551174
6.275016875,-1.665625572,-3.705857692,-3.116912683,5.12082361
6.285047875,-2.709127278,-3.24743423,-3.871230984,5.7333785
6.295079875,-3.453552675,-2.605492105,-4.114208522,5.970119509
6.305110875,-3.862981147,-2.098500209,-3.877199237,5.86165509
6.315141875,-3.781773262,-1.833396807,-3.584529136,5.52376701
6.325173875,-3.537508752,-1.580889769,-2.982607402,4.889696058
6.335204875,-3.191350662,-1.520300628,-2.215801787,4.172027157
6.345235875,-3.011694668,-1.639007584,-1.910542046,3.925152423
6.355268083,-2.8164193,-1.9407435,-1.599957832,3.776051916
6.365299083,-2.741411802,-2.233948621,-1.340636741,3.781953461
6.375331083,-2.688238977,-2.474851567,-1.222889605,3.853177658
6.385362083,-2.644747095,-2.672435708,-1.159035087,3.934458303
6.395393083,-1.176345184,-3.492254811,-0.505565468,3.719573645
6.405425083,-0.236878308,-3.61658942,0.575636746,3.669766754
6.415456083,-0.882733974,-2.300961513,-0.046281881,2.464910782
6.425488083,-0.682261308,-2.613211307,-1.224466599,2.965412666
6.435519083,-0.287240668,-2.266262381,-1.497571916,2.731514969
6.445550083,-0.31776138,-1.589030263,-1.001392983,1.904935006
6.455582083,-0.317528953,-1.733757621,-1.365903729,2.229895316
6.465613083,-0.730019612,-1.519322681,-1.566220567,2.300938266
6.475644083,-0.818492662,-1.337230445,-1.507809221,2.17522508
6.485676083,-0.763789621,-1.260033166,-1.558564222,2.144803161
6.495707083,-0.691143814,-1.217269846,-1.513897342,2.061870707
6.505739083,-0.394690857,-1.396547525,-1.201600478,1.884136293
6.515770083,-0.420784934,-1.5411594,-0.847683132,1.808535029
6.525801083,-0.626224225,-1.962692778,-0.589879979,2.142960128
6.535833083,-0.721638213,-2.078537522,-0.247162975,2.214084343
6.545864083,-0.746081621,-2.038123614,-0.158541405,2.176171186
6.555896083,-0.745286399,-1.953231691,-0.14435723,2.09556791
6.565927083,-0.882846533,-1.682239265,-0.255173661,1.916888245
6.575958083,-1.172914915,-1.39462613,-0.36556383,1.858587731
6.585990083,-1.390246857,-1.197298096,-0.226312974,1.848655354
6.596021083,-1.477327978,-1.148471507,0.010633162,1.87125568
6.606052083,-1.37594603,-1.284295895,0.233606206,1.896632616
6.616084083,-1.144087265,-1.406416163,0.513145798,1.88421355
6.626115083,-0.893498698,-1.506427524,0.621299992,1.858407245
6.636147083,-0.626640254,-1.587999691,0.502331373,1.779538658
6.646178083,-0.465364106,-1.524334037,0.392340569,1.641368067
6.656209083,-0.353996283,-1.376792414,0.17746358,1.432607428
6.666241083,-0.197172497,-1.158992694,-0.106325185,1.180443181
6.676272083,-0.016955464,-1.000247221,-0.182427281,1.016888246
6.686304083,0.224421107,-0.969492329,-0.109543492,1.001139344
6.696335083,0.316244904,-0.809051163,-0.089698042,0.873281377
6.706366083,0.500859337,-0.647142931,-0.032282478,0.818960443
6.716398083,0.2296377,-0.599445731,-0.155230127,0.66042793
6.726429083,0.057248042,-0.666658014,-0.241548479,0.71137607
6.736460083,0.023329806,-0.683262059,-0.122322582,0.694517196
6.746492083,-0.028332976,-0.693266645,-0.138578426,0.707548853
6.756523083,-0.163665028,-0.665737662,-0.078384265,0.690026788
6.766555083,-0.281222422,-0.574964901,0.011695016,0.640162059
6.776586083,-0.269692589,-0.554961284,0.018096548,0.617287295
6.786617083,-0.084368305,-0.595835368,0.239157552,0.647560137
6.796649083,-0.027496824,-0.597131403,0.445875337,0.745739099
6.806680083,0.111619546,-0.61766127,0.581348891,0.855529603
6.816712083,0.226860273,-0.398593874,0.488192221,0.669831549
6.826743083,0.141833571,-0.26114513,0.298429023,0.421157242
6.836774083,0.203667584,-0.282282229,0.130483541,0.371738748
6.846806083,0.265917335,-0.293345454,0.091756262,0.406426864
6.856837083,0.314289888,-0.33006129,-0.028863611,0.456674607
6.866868083,0.395218568,-0.313978816,-0.106011774,0.51577021
6.876900083,0.439951815,-0.242547475,-0.244182649,0.558580382
6.886931083,0.52679203,-0.224363512,-0.317243609,0.65459326
6.896963083,0.510054376,-0.192027825,-0.283108733,0.614150394
6.906994083,0.385821801,-0.234643502,-0.175710585,0.484551591
6.917025083,0.218343219,-0.217796212,-0.169772737,0.352039391
6.927057083,-0.007321883,-0.111751693,-0.092458513,0.145226125
6.937088083,-0.125086853,-0.081623037,-0.037810435,0.154073587
6.947120083,-0.156605685,-0.127705236,-0.026425322,0.203794665
6.957151083,-0.20807083,-0.179510398,0.094779273,0.290689807
6.967182083,-0.148981208,-0.23760307,0.314120026,0.4210962
6.977214083,-0.087657364,-0.35163927,0.47868114,0.600391225
6.987245083,-0.167149091,-0.452907198,0.590768756,0.762936086
6.997276083,-0.283203166,-0.507160589,0.664885138,0.882886257
7.007308083,-0.422969454,-0.476401603,0.637632435,0.901352744
7.017339083,-0.601514769,-0.414195707,0.577179242,0.930867325
7.027371083,-0.618708506,-0.364343808,0.519371914,0.886168049
7.037402083,-0.5548803,-0.348663915,0.43948316,0.789052673
7.047433083,-0.512169313,-0.298106841,0.284814366,0.657498531
7.057465083,-0.470800555,-0.307779306,0.174816545,0.589017901
7.067496083,-0.305762601,-0.353793384,0.055774251,0.470925996
7.077528083,-0.185754932,-0.292761025,-0.008766146,0.34682958
7.087559083,-0.085014715,-0.208874822,-0.14652947,0.268936942
7.097590083,0.003110719,-0.15231032,-0.29590478,0.332817892
7.107622083,-0.029521715,-0.165832298,-0.277555048,0.324667041
7.117653083,-0.083356152,-0.2080337,-0.150054756,0.269708544
7.127684083,-0.05251706,-0.278021656,0.008045769,0.283052675
7.137716083,0.061066858,-0.317927733,0.052174121,0.327916672
7.147747083,0.194281341,-0.273347099,0.216075084,0.39893899
7.157779083,0.100510129,-0.301492672,0.305714069,0.440977561
7.167810083,0.198280545,-0.332621201,0.272317112,0.473401149
7.177841083,0.0228325,-0.227418682,0.352751411,0.420326228
7.187873083,0.099597963,-0.192322524,0.177501002,0.280025558
7.197904083,-0.014069863,-0.100329157,0.120179578,0.157184706
7.207936083,-0.086201407,-0.064602962,0.108831301,0.153128957
7.217967083,-0.213034532,0.02893407,0.055297703,0.221988126
7.227998083,-0.235971404,0.025783297,-0.010862957,0.237624254
7.238030083,-0.251660653,0.032862814,0.001391637,0.253801075
7.248061083,-0.31074589,0.05190281,0.001667041,0.315055057
7.258093083,-0.220208188,0.0091506,0.074916281,0.232782793
7.268124083,-0.128046129,-0.005827043,0.10392081,0.165013031
7.278155083,-0.079829112,0.048121123,0.087327581,0.127727976
7.288187083,0.034632181,0.086355481,0.132621283,0.162003277
7.298218083,0.133566193,0.1052645,0.125567202,0.211394572
7.308249083,0.420789904,0.049956564,0.24921067,0.491595118
7.318281083,0.337439599,0.014299658,0.452196177,0.564403531
7.328312083,0.291553575,-0.027281646,0.370940929,0.472593851
7.338344083,0.191876966,0.014630318,0.321089907,0.37433881
7.348375083,0.11650928,0.091026822,0.293782241,0.328889495
7.358405583,0.016314316,0.097350293,0.233093405,0.253131926
7.368437583,0.127444743,0.101412939,0.180959045,0.24346031
7.378468583,0.086303734,0.18044069,0.24643792,0.317393802
7.388500583,0.113250919,0.081684141,0.130863025,0.191371892
7.398531583,0.182332264,0.078702353,0.085137799,0.216073042
7.408562583,0.166414389,0.205595411,0.091891918,0.280013118
7.418594583,0.113604968,0.145885984,0.137351096,0.230334827
7.428625583,0.157571937,0.106071416,0.109928824,0.219463908
7.438657583,0.174403732,0.120066726,0.133707696,0.250420503
7.448688583,0.149718249,0.135085007,0.097664289,0.224057641
7.458719583,0.046475717,0.223251371,-0.095803705,0.247344935
7.468751583,0.000295869,0.270333737,-0.072302576,0.279835807
7.478782583,-0.176081883,0.210541571,0.011548251,0.274710656
7.488813583,-0.102568349,0.10703416,-0.042139129,0.154117759
7.498845583,0.052866431,0.094318512,-0.401618346,0.415918426
7.508876583,0.700293829,-0.090001513,-1.236412461,1.423807393
7.518908583,0.201217309,-0.177638996,0.453708267,0.52715767
7.528939583,-0.240395992,-0.252847638,-0.964768363,1.025914302
7.538970583,0.482858098,0.011201803,-0.744150578,0.887151343
7.549002583,0.316830211,0.522768854,0.169402608,0.634323183
7.559033583,0.125685316,0.506401912,0.315266665,0.609616901
7.569065583,-0.09933747,0.192666341,0.611205944,0.648506713
7.579096583,-0.211653419,0.048186612,0.918901634,0.944192424
7.605712875,0.243503203,0.283536165,-1.075928611,1.138994707
7.615744042,0.387043576,0.214627021,-1.055106676,1.144166764
7.625775042,0.463752029,0.115865502,-0.907848058,1.026001391
7.635807042,0.454961325,0.08116637,-0.775388158,0.902665266
7.645838042,0.363236638,0.004799687,-0.680208936,0.771134287
7.655870042,0.211647572,-0.073753562,-0.671656798,0.708065772
7.665901042,0.014687036,-0.133063332,-0.654540244,0.668090181
7.675932042,-0.14746327,-0.194275202,-0.605272774,0.652566779
7.685964042,-0.341545807,-0.221101935,-0.603152574,0.727552494
7.695995042,-0.496716877,-0.17980919,-0.648849149,0.836698403
7.706026042,-0.33512381,-0.184841012,-0.676435728,0.777199756
7.716058042,-0.32097998,-0.004227537,-0.774103525,0.838022844
7.726089042,-0.448569149,0.102912457,-0.929696764,1.037372319
7.736121042,-0.473005248,0.038355396,-1.058018589,1.159572523
7.746152042,-0.482537379,0.020568458,-1.036400263,1.143411951
7.756183042,-0.424318407,-0.080654446,-0.95829725,1.051135038
7.766215042,-0.322072824,-0.173043962,-1.005638646,1.070039347
7.776246042,-0.355158125,-0.109310188,-1.045928301,1.109978388
7.786277042,-0.29658715,-0.070490231,-1.001183653,1.046566537
7.796309042,-0.210585718,-0.033057234,-0.919563539,0.943947153
7.806340042,-0.18129526,-0.010326768,-0.772242356,0.79330503
7.816372042,-0.226281399,-0.021506352,-0.695874211,0.732056495
7.826403042,-0.282700013,-0.075844819,-0.644460813,0.707814576
7.836434042,-0.272944518,-0.099326652,-0.637627757,0.700666576
7.846466042,-0.220046513,-0.075385813,-0.631701604,0.673164471
7.856497042,-0.127181618,-0.105134692,-0.457820613,0.486649958
7.866528042,-0.132796115,-0.107130054,-0.389421639,0.425159816
7.876560042,-0.136193932,-0.05570847,-0.308596746,0.341883273
7.886591042,-0.166286627,-0.060613699,-0.202370964,0.268848043
7.896623042,-0.167104653,-0.045034086,-0.110714105,0.205449864
7.906654042,-0.099505577,0.063353997,-0.079246729,0.14210958
7.916685042,-0.064728677,0.203508394,-0.130847822,0.250452831
7.926717042,-0.036390731,0.272943934,-0.286971989,0.39771296
7.936748042,0.117840691,0.357154949,-0.424790862,0.567356468
7.946779042,0.246475343,0.484168898,-0.496475387,0.735973794
7.956811042,0.391310874,0.540071642,-0.512523655,0.841119537
7.966842042,0.449697077,0.590168247,-0.497831356,0.893511096
7.976874042,0.44931116,0.562711476,-0.409113892,0.828190136
7.986905042,0.353563004,0.434777175,-0.347715789,0.65950304
7.996936042,0.189067964,0.316966158,-0.313211954,0.484061947
8.006968042,0.081008495,0.236913537,-0.36541531,0.442965856
8.016999042,-0.028851916,0.174251997,-0.502648292,0.532777155
8.027030042,-0.141810767,0.194754381,-0.742633225,0.780732778
8.037062042,-0.267266287,0.295270357,-1.102248098,1.171992628
8.047093042,-0.264683572,0.439834286,-1.478111798,1.564712778
8.057125042,-0.335334894,0.566146715,-1.774163927,1.892255066
8.067156042,-0.366965407,0.544676032,-1.956356735,2.063653863
8.077187042,-0.407359727,0.498686292,-2.14583225,2.240362919
8.087219042,-0.556315792,0.397391394,-2.295841398,2.395473837
8.097250042,-0.64539169,0.158063103,-2.414554494,2.504313835
8.107281042,-0.757472874,-0.023824188,-2.596306422,2.704651508
8.117313042,-1.013677399,-0.122494783,-2.92116486,3.094471033
8.127344042,-1.328994935,-0.225456283,-3.27811574,3.544446484
8.137376042,-1.664944371,-0.340777117,-3.672852498,4.046975942
8.147407042,-2.006846273,-0.441359751,-4.095813766,4.58234883
8.157438042,-2.275010692,-0.53064604,-4.35579033,4.942688364
8.167470042,-2.374510422,-0.609626392,-4.453692015,5.083828936
8.177501042,-2.341457866,-0.784145533,-4.467206685,5.104237918
8.187532042,-2.317551525,-0.913499246,-4.519186093,5.160287675
8.197564042,-2.402587582,-1.113411675,-4.320087231,5.067076705
8.207595042,-2.32444013,-1.685648777,-3.858773491,4.809840597
8.217626042,-2.155243928,-2.294335886,-3.499265038,4.706793957
8.227658042,-2.104470801,-2.648819681,-3.607166047,4.945370557
8.237689042,-2.21578483,-2.827071173,-3.775856465,5.211441823
8.247721042,-2.02352721,-2.988085073,-3.80906748,5.247123959
8.257752042,-2.039332234,-3.018671566,-4.320873681,5.651654922
8.267783042,-2.043022996,-2.98994595,-4.742970146,5.967368394
8.277815042,-1.882229244,-2.974700797,-4.786948224,5.941927722
8.287846042,-1.866831771,-3.000049061,-5.060582714,6.172102773
8.297877042,-1.661933055,-3.35427514,-5.044826807,6.281994962
8.307909042,-1.291247064,-3.890710983,-4.511178916,6.095546419
8.317940042,-0.961466441,-4.422651486,-4.11575628,6.117492431
8.327972042,-0.699588947,-5.089213021,-3.5961458,6.270707973
8.338003042,-0.377367604,-6.023008683,-2.890605556,6.691385535
8.348034042,-0.158198758,-6.905354694,-2.407783418,7.314804938
8.358066042,-0.000620974,-7.641302798,-2.088697352,7.92162644
8.368097042,0.191457721,-8.384963964,-1.572708929,8.533328196
8.378128042,0.487555459,-9.210290267,-0.969202307,9.273969497
8.388160042,1.097945716,-10.32041749,-0.292658406,10.38278146
8.398191042,1.801152921,-11.35700252,0.610472118,11.51513501
8.408223042,2.711432835,-12.42000645,1.622149184,12.81560752
8.418254042,4.013839896,-13.26221483,2.848562906,14.14607944
8.428285042,5.200531728,-13.4196324,3.748621011,14.87226357
8.438317042,6.127956263,-13.26035542,4.398332916,15.25562867
8.448348042,6.747803223,-12.7414431,5.1234549,15.30120945
8.458379042,7.154667106,-11.98409886,5.562775508,15.02505768
8.468411042,7.395682318,-11.14112917,5.646045706,14.51546445
8.478442042,7.610190933,-10.25995728,5.64679415,13.96667511
8.488474042,8.505721246,-9.717434483,5.717388754,14.12318523
8.498505042,9.718162462,-9.149775678,6.073214046,14.66441289
8.508536042,10.2266796,-7.947452484,6.60337992,14.53793669
8.518568042,10.53690363,-6.587360303,7.114392069,14.31901632
8.528599042,10.39153366,-4.916848213,7.219311583,13.57489698
8.538630042,9.757392601,-3.018366049,6.841049355,12.29297361
8.548662042,8.953272979,-1.265006515,6.292682269,11.01631466
8.558693042,8.276497529,0.092774262,5.718877455,10.0605456
8.568724042,7.686081945,1.226487397,5.008990391,9.255815023
8.578756042,7.277655686,2.235343766,4.533175557,8.860627216
8.588787042,7.047190604,3.008381928,4.336187247,8.804304463
8.598819042,6.96981323,3.508035277,4.108856858,8.818577699
8.608850042,6.947060544,3.796478425,3.865793366,8.810179169
8.61888075,6.99792255,3.901048275,3.75776898,8.84928954
8.62891275,7.162977753,3.903168476,3.683180728,8.950351653
8.63894375,7.282107171,3.882596217,3.564359458,8.989343501
8.64897475,7.560742199,3.812258306,3.592529005,9.198065049
8.65900675,7.512865198,3.946540198,3.779121257,9.289783662
8.66903775,7.201832501,4.040137748,4.020582905,9.184453783
8.67906975,6.847023456,3.946939563,4.250731359,8.973782881
8.68910075,6.549714759,3.727541506,4.449184397,8.751489639
8.69913175,6.297357702,3.512362801,4.745160513,8.631914896
8.70916375,6.145631812,3.223976955,5.092797364,8.608100996
8.71919475,6.100861436,2.903955334,5.375544155,8.634230817
8.72922575,6.190006916,2.68681021,5.565514344,8.747004324
8.73925775,6.222287639,2.669310079,5.627519388,8.804036246
8.74928875,6.241659465,2.661147366,5.452996373,8.704894464
8.75932075,6.243348141,2.580951049,5.00219008,8.406105514
8.76935175,6.175573064,2.547565202,4.296128557,7.942575886
8.77938275,6.034727088,2.53672154,3.657505019,7.498681895
8.78941475,5.92117416,2.435147803,3.023439386,7.080355497
8.79944575,5.791944262,2.20198657,2.388879955,6.640941998
8.80947675,5.611363531,1.86151022,1.928604096,6.218692365
8.81950875,5.417972721,1.416561082,1.644501043,5.83656212
8.82953975,5.254520824,0.894355023,1.549083839,5.550632463
8.83957175,5.125423073,0.291360909,1.632820061,5.387110005
8.84960275,4.982627635,-0.428806729,1.821283715,5.322361105
8.85963375,4.902273151,-1.249048879,1.979004171,5.432206058
8.86966575,4.853507665,-1.99675164,2.352983898,5.7515291
8.87969675,4.674683146,-2.741278778,2.536131556,5.983246203
8.88972775,4.349508373,-3.298479838,2.618205121,6.054187839
8.89975975,4.017531243,-3.716169841,2.578818569,6.049857915
8.90979075,3.517218036,-3.914382851,2.476323895,5.815960441
8.91982275,2.966580184,-4.046966711,2.068306503,5.427377759
8.92985375,2.421521451,-4.006961231,1.906386576,5.055078063
8.93988475,1.905083086,-3.848952507,1.771790396,4.645752703
8.94991675,1.425954049,-3.974029713,1.117840137,4.367587856
8.95994775,1.151872247,-4.140423928,0.747628502,4.362209115
8.96997875,0.806195968,-4.296384373,0.445788067,4.394041149
8.98001075,0.492747787,-4.518160492,-0.001163523,4.544950601
8.99004175,0.192633596,-4.785777612,-0.449319858,4.810682216
9.00007375,-0.178145365,-5.00826943,-0.743221894,5.066248833
9.01010475,-0.580113375,-5.172464508,-1.027086818,5.305264173
9.02013575,-0.917918133,-5.549698795,-1.316872487,5.777186475
9.03016775,-1.220625563,-6.101221624,-1.546172218,6.411355598
9.04019875,-1.504585651,-6.592570172,-1.647058908,6.959781785
9.05023075,-1.744807981,-6.990360346,-1.747126987,7.4136324
9.06026175,-1.989174818,-7.287561454,-1.780819813,7.761229774
9.07029275,-2.252019441,-7.387407923,-1.657109687,7.898822691
9.08032475,-2.646819348,-7.313242425,-1.733077297,7.968232197
9.09035575,-2.923354642,-6.959625041,-1.700798328,7.737900105
9.10038775,-3.243220142,-6.188697724,-1.440541683,7.133976223
9.11041875,-3.433730614,-5.377909938,-1.330438027,6.517859049
9.12044975,-3.529613841,-4.870763968,-1.515081988,6.203062867
9.13048175,-3.563952785,-4.522231323,-1.533983697,5.958644273
9.14051275,-3.791401287,-4.230416086,-1.507184154,5.877307892
9.15054475,-4.104622012,-4.109868134,-1.554656528,6.012977204
9.16057575,-4.465110458,-3.992875289,-1.499248897,6.174788396
9.17060675,-4.766412803,-3.744672679,-1.2768711,6.194486604
9.18063875,-5.040786965,-3.362931065,-0.966528375,6.136205316
9.19066975,-5.207841332,-2.975087298,-0.602257292,6.027890976
9.20070075,-5.292804884,-2.608019272,-0.257223676,5.906074168
9.21073275,-5.326852636,-2.256475604,0.024185847,5.785121097
9.22076375,-5.35818611,-1.920706554,0.224072905,5.696444569
9.23079575,-5.338579811,-1.587791238,0.396394444,5.583784019
9.24082675,-5.246358696,-1.291691161,0.532770224,5.429234728
9.25085775,-5.112798935,-1.057853698,0.59218729,5.254564985
9.26088975,-5.024137019,-0.840601277,0.596601938,5.128791004
9.27092075,-4.957707387,-0.668382357,0.488175849,5.026322032
9.28095275,-4.884922416,-0.638604535,0.280676858,4.934476898
9.29098375,-4.81319696,-0.687073275,-0.010905039,4.862000985
9.30101575,-4.720349607,-0.785590672,-0.389508726,4.801100933
9.31104675,-4.623536673,-0.952373728,-0.742872376,4.778699243
9.32107775,-4.562670082,-1.149973364,-1.114469948,4.835539296
9.33110975,-4.564023128,-1.327957346,-1.391741406,4.952849883
9.34114075,-4.636984684,-1.544800462,-1.567134486,5.132635378
9.35117175,-4.746853867,-1.750710161,-1.622248002,5.313124907
9.36120375,-4.915256016,-1.964497814,-1.571288348,5.521588579
9.37123475,-5.092089266,-2.160057064,-1.48064832,5.726040435
9.38126675,-5.192895264,-2.348963937,-1.381092457,5.86440186
9.39129775,-5.270608268,-2.489561407,-1.281604421,5.968227326
9.40132875,-5.330397803,-2.59279166,-1.16778603,6.041476106
9.41136075,-5.367675557,-2.647254381,-1.075865461,6.080903151
9.42139175,-5.388410953,-2.622376817,-1.003288651,6.076053068
9.43142375,-5.406041477,-2.612640326,-0.997505754,6.086558277
9.44145475,-5.434170093,-2.547871011,-1.013907194,6.086859542
9.45148675,-5.422208444,-2.470006564,-1.016539611,6.044388275
9.46151775,-5.388792776,-2.412651225,-0.992900487,5.987138289
9.47154875,-5.352080448,-2.40642014,-0.88540469,5.934607356
9.48158075,-5.046496772,-2.573555198,-0.887528983,5.733936145
9.49161175,-4.641411027,-2.698128666,-1.061614627,5.47262462
9.50164375,-4.354278824,-2.639848883,-1.379868634,5.275659547
9.51167475,-4.162877821,-2.594199378,-1.730456575,5.201336571
9.52170575,-4.127275295,-2.54260267,-1.962114488,5.229638894
9.53173775,-4.152331783,-2.57556284,-2.035525696,5.293273849
9.54176875,-4.115959178,-2.841381941,-1.949177524,5.367854721
9.55180075,-4.080092357,-3.325498068,-1.831866006,5.573313566
9.56183175,-3.886141384,-3.787572531,-1.681900127,5.681248856
9.57186275,-3.618241843,-4.16570495,-1.748961843,5.78823283
9.58189475,-3.280649339,-4.54595757,-1.857953943,5.905961663
9.59192575,-2.962647931,-4.812894074,-1.932001913,5.972760126
9.60195775,-2.620443728,-5.07494523,-1.968900182,6.041387452
9.61198875,-2.216323943,-5.292663381,-1.93060092,6.054056276
9.622021125,-1.685060547,-5.552652224,-1.913026528,6.109913769
9.632052125,-0.90814802,-6.165663203,-2.071737503,6.567513368
9.642083125,-0.101770788,-6.991109374,-2.176289227,7.322718237
9.652115125,0.505743808,-8.145746185,-2.207919155,8.454813109
9.662146125,0.71174297,-9.077977132,-1.811713138,9.284317496
9.672178125,0.785288664,-9.423937002,-1.283501112,9.543303516
9.682209125,1.258547096,-9.690346672,-0.724816028,9.79857733
9.692241125,1.86616051,-10.46995652,0.626407535,10.65339997
9.702272125,3.154331354,-9.01952778,2.423426767,9.857722098
9.712303125,4.940506632,-7.464392949,4.017451136,9.811507607
9.722335125,7.07002632,-6.591946274,4.759554019,10.7746175
9.732366125,9.312983161,-5.943038653,4.865050653,12.07145731
9.742398125,11.18703332,-4.941904117,4.762285838,13.12446179
9.752429125,12.79954571,-3.626094654,4.41493784,14.01672604
9.762460125,14.37809981,-2.320159968,4.004229997,15.10452761
